File: E2/1_5mM_kaucn4_h2o_1.nor
# XDI/1.0  Demeter/0.9.18
# Athena.element:              Au
# Athena.edge:                 l3
# Athena.e0:                   11930
# Athena.eshift:               -4.892
# Athena.rbkg:                 1
# Athena.standard:             None
# Athena.bkg_kweight:          2
# Athena.edge_step:            3.96855
# Athena.fixed_step:           no
# Athena.flatten:              yes
# Athena.pre_edge_range:       -250 -35
# Athena.pre_edge_line:        -7.994190 + 0.000684419 * E
# Athena.normalization_range:  20 750
# Athena.post_edge_polynomial: -109.588 + 0.018383 * E - 7.41835e-007 * E^2 + 0 * E^3
# Athena.spline_range_energy:  0.000 739.839
# Athena.clamps:               0/24
# Athena.spline_range_k:       0.000 13.935
# Athena.kweight:              2
# Athena.window:               hanning
# Athena.phase_correction:     0
# Athena.k_range:              3.000 11.935
# Athena.dk:                   1
# Athena.r_range:              1 3
# Athena.dr:                   0.0
# Athena.window:               hanning
# Athena.plot_multiplier:      1
# Athena.y_offset:             0
# ///
#------------------------
#   e         norm        nbkg        flat        fbkg        nder        nsec
  11714.124       0.00976105   0.00976105   0.00976105   0.00976105  -0.000266926   2.36436e-05
  11719.096       0.00843387   0.00843387   0.00843387   0.00843387  -0.000149368   1.63137e-05
  11724.108       0.00826972   0.00826972   0.00826972   0.00826972  -0.000104045  -1.39823e-06
  11729.106       0.0073923   0.0073923   0.0073923   0.0073923  -0.000163366  -4.90644e-06
  11734.109       0.00663583   0.00663583   0.00663583   0.00663583  -0.000153117  -5.42491e-06
  11739.111       0.00586049   0.00586049   0.00586049   0.00586049  -0.000217637   8.83409e-07
  11744.110       0.00445929   0.00445929   0.00445929   0.00445929  -0.000144282   1.87871e-05
  11749.108       0.00441805   0.00441805   0.00441805   0.00441805  -2.98151e-05  -3.60309e-06
  11754.050       0.00416292   0.00416292   0.00416292   0.00416292  -0.000180097  -1.29289e-05
  11758.876       0.00265888   0.00265888   0.00265888   0.00265888  -0.000156103   6.86905e-06
  11763.585       0.00267445   0.00267445   0.00267445   0.00267445  -0.000114599  -2.6565e-06
  11768.178       0.00159288   0.00159288   0.00159288   0.00159288  -0.000180814  -6.00521e-06
  11772.666       0.00103261   0.00103261   0.00103261   0.00103261  -0.000169128   6.10813e-06
  11777.024       9.67941e-05   9.67941e-05   9.67941e-05   9.67941e-05  -0.000126782   2.48367e-07
  11781.277      -5.91062e-05  -5.91062e-05  -5.91062e-05  -5.91062e-05  -0.000166989   2.36648e-06
  11785.406      -0.00130286  -0.00130286  -0.00130286  -0.00130286  -0.000106947   1.16619e-05
  11789.434      -0.000931555  -0.000931555  -0.000931555  -0.000931555  -7.18536e-05  -1.63168e-05
  11793.345      -0.00187335  -0.00187335  -0.00187335  -0.00187335  -0.000236496  -1.2221e-05
  11797.143      -0.00275465  -0.00275465  -0.00275465  -0.00275465  -0.000166063   2.4678e-05
  11800.829      -0.00311608  -0.00311608  -0.00311608  -0.00311608  -5.18178e-05   2.02478e-05
  11804.395      -0.00313042  -0.00313042  -0.00313042  -0.00313042  -1.92302e-05  -7.27831e-06
  11807.860      -0.0032513  -0.0032513  -0.0032513  -0.0032513  -0.000102997  -1.42968e-05
  11811.200      -0.00383134  -0.00383134  -0.00383134  -0.00383134  -0.000116523   2.41153e-05
  11814.433      -0.00401713  -0.00401713  -0.00401713  -0.00401713   5.5496e-05  -1.86727e-06
  11817.557      -0.00347854  -0.00347854  -0.00347854  -0.00347854  -0.000128393  -3.70565e-05
  11820.568      -0.00480488  -0.00480488  -0.00480488  -0.00480488  -0.000171864   3.30166e-05
  11823.471      -0.00449488  -0.00449488  -0.00449488  -0.00449488   6.68537e-05   2.27881e-05
  11826.266      -0.00442399  -0.00442399  -0.00442399  -0.00442399  -4.20313e-05  -5.34964e-05
  11828.952      -0.00472525  -0.00472525  -0.00472525  -0.00472525  -0.000226355  -2.97747e-06
  11831.512      -0.00561143  -0.00561143  -0.00561143  -0.00561143  -5.76509e-05   3.02074e-05
  11833.987      -0.00501551  -0.00501551  -0.00501551  -0.00501551  -7.42666e-05  -8.21006e-06
  11836.341      -0.0059701  -0.0059701  -0.0059701  -0.0059701  -9.73014e-05   6.70286e-05
  11838.586      -0.00546308  -0.00546308  -0.00546308  -0.00546308   0.000234051  -2.38011e-06
  11840.723      -0.00494453  -0.00494453  -0.00494453  -0.00494453  -0.000107731  -6.70242e-05
  11842.744      -0.00591097  -0.00591097  -0.00591097  -0.00591097  -4.46017e-05   8.51254e-05
  11844.674      -0.00512077  -0.00512077  -0.00512077  -0.00512077   0.000228634   6.86169e-06
  11846.489      -0.00505476  -0.00505476  -0.00505476  -0.00505476  -1.89054e-05  -0.000133347
  11848.194      -0.00518732  -0.00518732  -0.00518732  -0.00518732  -0.000240733  -9.22726e-05
  11849.796      -0.00585086  -0.00585086  -0.00585086  -0.00585086  -0.000324051   0.0001837
  11851.294      -0.00619191  -0.00619191  -0.00619191  -0.00619191   0.000328755   0.000288914
  11852.677      -0.00490381  -0.00490381  -0.00490381  -0.00490381   0.000508225  -0.000111445
  11853.961      -0.00483637  -0.00483637  -0.00483637  -0.00483637   3.15094e-05  -0.000217245
  11855.149      -0.00482592  -0.00482592  -0.00482592  -0.00482592  -2.8804e-05  -8.34077e-05
  11856.214      -0.00490124  -0.00490124  -0.00490124  -0.00490124  -0.000156342  -5.17247e-05
  11857.181      -0.00514364  -0.00514364  -0.00514364  -0.00514364  -0.000133919   8.28082e-05
  11858.044      -0.00514639  -0.00514639  -0.00514639  -0.00514639  -4.75283e-06   0.000221042
  11858.803      -0.00515135  -0.00515135  -0.00515135  -0.00515135   0.000224767   0.000395236
  11859.459      -0.00482844  -0.00482844  -0.00482844  -0.00482844   0.000554348   3.3671e-05
  11860.010      -0.00448253  -0.00448253  -0.00448253  -0.00448253   0.000265391  -0.000811977
  11860.506      -0.00455047  -0.00455047  -0.00455047  -0.00455047  -0.000296117  -0.000544005
  11861.008      -0.0047782  -0.0047782  -0.0047782  -0.0047782  -0.000277798   0.000527353
  11861.511      -0.00482957  -0.00482957  -0.00482957  -0.00482957   0.000233715   0.000982991
  11862.001      -0.00454622  -0.00454622  -0.00454622  -0.00454622   0.000697919  -0.000301221
  11862.510      -0.00413249  -0.00413249  -0.00413249  -0.00413249  -6.71447e-05  -0.000941444
  11863.006      -0.00461369  -0.00461369  -0.00461369  -0.00461369  -0.000248138   0.00031117
  11863.509      -0.00438036  -0.00438036  -0.00438036  -0.00438036   0.000243683   0.00062353
  11864.005      -0.00437023  -0.00437023  -0.00437023  -0.00437023   0.000374831  -0.000597151
  11864.508      -0.00400586  -0.00400586  -0.00400586  -0.00400586  -0.000352931  -0.000632196
  11865.010      -0.00472503  -0.00472503  -0.00472503  -0.00472503  -0.000260716   0.00144479
  11865.507      -0.0042664  -0.0042664  -0.0042664  -0.0042664   0.00109085   0.000933552
  11866.010      -0.00363494  -0.00363494  -0.00363494  -0.00363494   0.000672183  -0.0009437
  11866.506      -0.00359462  -0.00359462  -0.00359462  -0.00359462   0.000147715  -7.83536e-05
  11867.009      -0.0034873  -0.0034873  -0.0034873  -0.0034873   0.000593869  -0.000587591
  11867.506      -0.00300098  -0.00300098  -0.00300098  -0.00300098  -0.000439641  -0.000869923
  11868.009      -0.00392681  -0.00392681  -0.00392681  -0.00392681  -0.000275794   0.00125026
  11868.506      -0.00327672  -0.00327672  -0.00327672  -0.00327672   0.000810364   0.000645211
  11869.009      -0.00311653  -0.00311653  -0.00311653  -0.00311653   0.000369353  -0.00126265
  11869.506      -0.00290741  -0.00290741  -0.00290741  -0.00290741  -0.00045216  -0.000551891
  11870.009      -0.00356869  -0.00356869  -0.00356869  -0.00356869  -0.000182538   0.00064173
  11870.506      -0.00308998  -0.00308998  -0.00308998  -0.00308998   0.000189698   0.000795492
  11870.997      -0.00338127  -0.00338127  -0.00338127  -0.00338127   0.000603408   0.00035441
  11871.506      -0.00248639  -0.00248639  -0.00248639  -0.00248639   0.000544215  -0.000230534
  11872.009      -0.0028302  -0.0028302  -0.0028302  -0.0028302   0.000369969   0.000377367
  11872.519      -0.00211172  -0.00211172  -0.00211172  -0.00211172   0.000926374  -0.000746478
  11873.016      -0.00189761  -0.00189761  -0.00189761  -0.00189761  -0.00038151  -0.00153979
  11873.507      -0.00248881  -0.00248881  -0.00248881  -0.00248881  -0.000595554   0.00135441
  11874.011      -0.00248995  -0.00248995  -0.00248995  -0.00248995   0.000965584   0.00125797
  11874.508      -0.00152245  -0.00152245  -0.00152245  -0.00152245   0.000663424  -0.000903576
  11875.005      -0.00182998  -0.00182998  -0.00182998  -0.00182998   6.67061e-05  -0.000291027
  11875.509      -0.00145569  -0.00145569  -0.00145569  -0.00145569   0.000372135   7.83036e-05
  11876.019      -0.00145289  -0.00145289  -0.00145289  -0.00145289   0.000146051   0.000734933
  11876.498      -0.00131126  -0.00131126  -0.00131126  -0.00131126   0.00109891   0.000863986
  11877.008      -0.000366072  -0.000366072  -0.000366072  -0.000366072   0.00100053  -0.00124193
  11877.505      -0.000303219  -0.000303219  -0.000303219  -0.000303219  -0.00015233  -0.00118894
  11878.009      -0.000518615  -0.000518615  -0.000518615  -0.000518615  -0.000190073   0.000422059
  11878.507      -0.000493577  -0.000493577  -0.000493577  -0.000493577   0.000270362   0.000738535
  11879.011      -0.000247848  -0.000247848  -0.000247848  -0.000247848   0.00054957   0.000442301
  11879.508       5.68718e-05   5.68718e-05   5.68718e-05   5.68718e-05   0.000713371   0.000192396
  11880.006       0.000462384   0.000462384   0.000462384   0.000462384   0.00074112   0.000191318
  11880.504       0.000794805   0.000794805   0.000794805   0.000794805   0.000903866  -0.00041788
  11881.008       0.00136806   0.00136806   0.00136806   0.00136806   0.000322404  -0.0013477
  11881.512       0.00111985   0.00111985   0.00111985   0.00111985  -0.000454884   0.000199233
  11882.016       0.000909444   0.000909444   0.000909444   0.000909444   0.00052327   0.00189607
  11882.508       0.00164103   0.00164103   0.00164103   0.00164103   0.0014336   0.00052129
  11883.006       0.00232871   0.00232871   0.00232871   0.00232871   0.00103935  -0.00139312
  11883.517       0.00268921   0.00268921   0.00268921   0.00268921   2.86415e-05   1.72646e-05
  11884.009       0.00235742   0.00235742   0.00235742   0.00235742   0.00105665   0.000989599
  11884.507       0.00373551   0.00373551   0.00373551   0.00373551   0.00100854  -0.00124869
  11885.005       0.00336233   0.00336233   0.00336233   0.00336233  -0.000187539   0.000215518
  11885.510       0.00354746   0.00354746   0.00354746   0.00354746   0.00122464   0.00100481
  11886.008       0.0045904   0.0045904   0.0045904   0.0045904   0.000820086  -0.000619304
  11886.513       0.00436985   0.00436985   0.00436985   0.00436985   0.000603605   0.000167694
  11887.005       0.00519208   0.00519208   0.00519208   0.00519208   0.000987243  -0.000187465
  11887.503       0.00534801   0.00534801   0.00534801   0.00534801   0.000417865   0.000291199
  11888.008       0.00561124   0.00561124   0.00561124   0.00561124   0.00127934   0.00110186
  11888.507       0.00663145   0.00663145   0.00663145   0.00663145   0.00152325  -0.00034704
  11889.005       0.00713007   0.00713007   0.00713007   0.00713007   0.000933311  -0.000533065
  11889.516       0.00757362   0.00757362   0.00757362   0.00757362   0.000985121   0.000620102
  11890.009       0.00811864   0.00811864   0.00811864   0.00811864   0.00155558  -0.000284281
  11890.514       0.00912516   0.00912516   0.00912516   0.00912516   0.000701579  -0.000522056
  11891.006       0.00881846   0.00881846   0.00881846   0.00881846   0.00103483   0.0012453
  11891.505       0.0101511   0.0101511   0.0101511   0.0101511   0.00193617  -0.000772318
  11892.010       0.010762   0.010762   0.010762   0.010762   0.00025958  -0.000937249
  11892.496       0.0104085   0.0104085   0.0104085   0.0104085   0.00100689   0.00120676
  11893.008       0.0117667   0.0117667   0.0117667   0.0117667   0.00146368  -0.000185465
  11893.507       0.0118872   0.0118872   0.0118872   0.0118872   0.000819511   0.000412482
  11893.993       0.0125744   0.0125744   0.0125744   0.0125744   0.00187023   0.00163197
  11894.517       0.0137767   0.0137767   0.0137767   0.0137767   0.00246829  -0.000493262
  11895.004       0.0150686   0.0150686   0.0150686   0.0150686   0.00137178  -0.000745179
  11895.509       0.0151377   0.0151377   0.0151377   0.0151377   0.001729   0.000545571
  11896.008       0.0168054   0.0168054   0.0168054   0.0168054   0.00191981  -7.06918e-05
  11896.507       0.0170544   0.0170544   0.0170544   0.0170544   0.00165842   0.00073194
  11897.001       0.018451   0.018451   0.018451   0.018451   0.00264611   7.74528e-05
  11897.506       0.0196968   0.0196968   0.0196968   0.0196968   0.00173577  -0.00112051
  11898.005       0.0201953   0.0201953   0.0201953   0.0201953   0.00152012   0.00115751
  11898.511       0.0212244   0.0212244   0.0212244   0.0212244   0.00289895   0.00160399
  11899.011       0.0231087   0.0231087   0.0231087   0.0231087   0.00313213  -0.000607436
  11899.510       0.0243531   0.0243531   0.0243531   0.0243531   0.00229218  -0.000644867
  11899.997       0.0253702   0.0253702   0.0253702   0.0253702   0.0024959   0.00152672
  11900.509       0.0268467   0.0268467   0.0268467   0.0268467   0.00381753   0.0012905
  11901.003       0.0292083   0.0292083   0.0292083   0.0292083   0.00379337  -0.00119399
  11901.502       0.0306139   0.0306139   0.0306139   0.0306139   0.00263179  -0.00136983
  11902.008       0.0318546   0.0318546   0.0318546   0.0318546   0.00241601   0.00129783
  11902.508       0.0330435   0.0330435   0.0330435   0.0330435   0.00393689   0.00204482
  11903.007       0.0357895   0.0357895   0.0357895   0.0357895   0.0044598  -0.000258939
  11903.514       0.0375291   0.0375291   0.0375291   0.0375291   0.00367645  -8.21331e-05
  11904.007       0.0394649   0.0394649   0.0394649   0.0394649   0.0043777   0.00139493
  11904.501       0.0418517   0.0418517   0.0418517   0.0418517   0.0050538   0.00133892
  11905.001       0.0444868   0.0444868   0.0444868   0.0444868   0.00570819   0.000387005
  11905.507       0.0475947   0.0475947   0.0475947   0.0475947   0.00544316  -0.00122455
  11906.013       0.0499969   0.0499969   0.0499969   0.0499969   0.00446857   0.00181181
  11906.507       0.0520637   0.0520637   0.0520637   0.0520637   0.00725515   0.00324292
  11907.007       0.0572086   0.0572086   0.0572086   0.0572086   0.00769203  -0.000123045
  11907.507       0.059758   0.059758   0.059758   0.059758   0.00713207   0.000581375
  11908.008       0.0643435   0.0643435   0.0643435   0.0643435   0.00827364   0.000760255
  11908.514       0.0680863   0.0680863   0.0680863   0.0680863   0.00789734   0.000499747
  11909.014       0.0722937   0.0722937   0.0722937   0.0722937   0.00877673   0.00258555
  11909.508       0.0768147   0.0768147   0.0768147   0.0768147   0.0104687   0.00294887
  11910.003       0.082641   0.082641   0.082641   0.082641   0.0116914   0.00424321
  11910.509       0.0885155   0.0885155   0.0885155   0.0885155   0.0147153   0.00378469
  11911.004       0.097368   0.097368   0.097368   0.097368   0.0154791   0.000244506
  11911.510       0.104009       0.104009       0.104009       0.104009       0.01496   0.00423634
  11912.005       0.112344       0.112344       0.112344       0.112344       0.0197201   0.00612478
  11912.505       0.12363       0.12363       0.12363       0.12363       0.0210542   0.00379357
  11913.006       0.133424       0.133424       0.133424       0.133424       0.0235182   0.00485344
  11913.506       0.147179       0.147179       0.147179       0.147179       0.0259139   0.00678966
  11914.007       0.159374       0.159374       0.159374       0.159374       0.0303174   0.00693447
  11914.508       0.177539       0.177539       0.177539       0.177539       0.0328581   0.0096436
  11915.009       0.192281       0.192281       0.192281       0.192281       0.0399755   0.0129143
  11915.510       0.217582       0.217582       0.217582       0.217582       0.0457944   0.0115386
  11916.011       0.238158       0.238158       0.238158       0.238158       0.0515348   0.0213931
  11916.505       0.26889       0.26889       0.26889       0.26889       0.0670934   0.0266422
  11917.006       0.304963       0.304963       0.304963       0.304963       0.0780624   0.0273516
  11917.507       0.347109       0.347109       0.347109       0.347109       0.0944996   0.038573
  11918.008       0.399661       0.399661       0.399661       0.399661       0.116716       0.0453741
  11918.509       0.464082       0.464082       0.464082       0.464082       0.139974       0.0397984
  11919.011       0.539943       0.539943       0.539943       0.539943       0.156602       0.066961
  11919.512       0.621045       0.621045       0.621045       0.621045       0.207089       0.0807174
  11920.007       0.746244       0.746244       0.746244       0.746244       0.237013       0.0507892
  11920.508       0.857181       0.857181       0.857181       0.857181       0.25769       0.0243917
  11921.009        1.0046        1.0046        1.0046        1.0046       0.261468      -0.00437935
  11921.505        1.11773        1.11773        1.11773        1.11773       0.253326      -0.0471137
  11922.006        1.25707        1.25707        1.25707        1.25707       0.214515      -0.129569
  11922.501        1.33152        1.33152        1.33152        1.33152       0.124198      -0.169931
  11923.009        1.38163        1.38163        1.38163        1.38163       0.0440911  -0.174876
  11923.498        1.37547        1.37547        1.37547        1.37547      -0.0501188  -0.133798
  11924.006        1.33166        1.33166        1.33166        1.33166      -0.089292  -0.0322871
  11924.507        1.28534        1.28534        1.28534        1.28534      -0.0827094   0.0356607
  11925.009        1.24869        1.24869        1.24869        1.24869      -0.0535172   0.0716691
  11925.511        1.23164        1.23164        1.23164        1.23164      -0.0108037   0.0677198
  11926.019        1.23778        1.23778        1.23778        1.23778       0.0148595   0.0349994
  11926.508        1.24646        1.24646        1.24646        1.24646       0.0241047   0.000998662
  11927.004        1.26152        1.26152        1.26152        1.26152       0.0158432  -0.0427963
  11927.505        1.26227        1.26227        1.26227        1.26227      -0.0185845  -0.0679266
  11928.014        1.24275        1.24275        1.24275        1.24275      -0.0527627  -0.0667005
  11928.509        1.20931        1.20931        1.20931        1.20931      -0.0855385  -0.0678537
  11929.005        1.15794        1.15794        1.15794        1.15794      -0.12004      -0.035121
  11929.507        1.08952        1.08952        1.08952        1.08952      -0.120586      -0.00215198
  11929.997        1.03836        1.03836        1.03836        1.03836      -0.122174      -0.00602841
  11930.505       0.967588       0.163463       0.967588       0.163463      -0.126602       0.0141161
  11931.001       0.91121       0.226107       0.911211       0.226108      -0.107997       0.0284242
  11931.516       0.858457       0.287794       0.858458       0.287795      -0.0978794   0.0295925
  11932.006       0.81289       0.343461       0.812892       0.343463      -0.0782713   0.034667
  11932.502       0.781282       0.396872       0.781284       0.396874      -0.0636978   0.0290382
  11933.004       0.749294       0.447998       0.749297       0.448001      -0.0492796   0.0326158
  11933.506       0.731771       0.496246       0.731774       0.49625      -0.0309286   0.0254881
  11934.015       0.718025       0.542233       0.71803       0.542238      -0.0235111   0.0225342
  11934.505       0.70829       0.58391       0.708296       0.583916      -0.00842367   0.0294558
  11935.001       0.709716       0.623557       0.709723       0.623564       0.00554413   0.0179389
  11935.510       0.713862       0.661608       0.71387       0.661616       0.00960494   0.0120646
  11936.006       0.71937       0.696299       0.719379       0.696308       0.0176703   0.0204837
  11936.503       0.731405       0.72866       0.731416       0.72867       0.0299412   0.0196438
  11937.006       0.749285       0.75914       0.749297       0.759152       0.0372964   0.00661521
  11937.508       0.768903       0.787399       0.768916       0.787413       0.0365921   0.000603569
  11938.005       0.785851       0.813216       0.785866       0.813232       0.0378995   0.0125414
  11938.508       0.80678       0.837314       0.806797       0.837331       0.049126   0.00502807
  11938.992       0.834338       0.858656       0.834357       0.858675       0.0428622  -0.0126782
  11939.507       0.84962       0.879446       0.849641       0.879467       0.0364541  -0.000379783
  11940.010       0.871456       0.897908       0.871479       0.897931       0.0424755   0.00551472
  11940.507       0.892083       0.914458       0.892108       0.914483       0.0419672  -0.00445995
  11941.010       0.913415       0.929588       0.913442       0.929615       0.0380165  -0.00873159
  11941.501       0.92986       0.94285       0.92989       0.94288       0.0332906  -0.00265961
  11942.010       0.946705       0.955137       0.946737       0.955169       0.0353569   0.000173023
  11942.501       0.965217       0.96563       0.965251       0.965665       0.0334637  -0.0152718
  11943.010       0.980172       0.975213       0.980209       0.97525       0.0200836  -0.0110521
  11943.513       0.985554       0.983453       0.985593       0.983493       0.0222723   0.0082294
  11944.010        1.00245       0.99048        1.00249       0.990522       0.0283155  -0.00486834
  11944.507        1.0137       0.996481        1.01375       0.996526       0.0174322  -0.018975
  11945.011        1.01989        1.0016        1.01994        1.00165       0.009331  -0.00939656
  11945.502        1.02298        1.00573        1.02303        1.00579       0.00808922  -0.00673026
  11945.999        1.02789        1.00915        1.02794        1.0092       0.00268016  -0.011211
  11946.509        1.02568        1.01193        1.02574        1.01198      -0.00320024  -0.00718093
  11947.006        1.02466        1.01401        1.02472        1.01407      -0.00455104  -0.00422248
  11947.516        1.0211        1.01559        1.02116        1.01565      -0.00745269  -0.00527502
  11948.013        1.01716        1.01667        1.01723        1.01674      -0.00986404  -0.00675586
  11948.517        1.01122        1.01739        1.0113        1.01746      -0.0142153  -0.00752385
  11949.002        1.0031        1.01781        1.00318        1.01788      -0.0173029  -0.00786031
  11949.499       0.994223        1.01803       0.994302        1.01811      -0.0219388  -0.000400159
  11950.022       0.980727        1.01813       0.98081        1.01821      -0.017711   0.00876146
  11950.501       0.976487        1.01817       0.976574        1.01826      -0.0131651  -0.000468803
  11951.011       0.967705        1.01821       0.967797        1.01831      -0.0181747  -0.000446498
  11951.509       0.95817        1.01825       0.958266        1.01835      -0.0136151   0.00204796
  11952.025       0.953898        1.01828       0.953998        1.01838      -0.0160979   0.00151215
  11952.516       0.941945        1.01831       0.942049        1.01842      -0.012091   0.00847998
  11953.008       0.942012        1.01834       0.94212        1.01844      -0.00776118  -0.00206012
  11953.506       0.934266        1.01835       0.934379        1.01847      -0.0141295  -0.00196257
  11954.010       0.927854        1.01837       0.927972        1.01849      -0.00972768   0.00966117
  11954.508       0.924518        1.01838       0.92464        1.0185      -0.00444804   0.00830616
  11955.006       0.923424        1.01839       0.923551        1.01851      -0.00145474  -0.000249121
  11955.510       0.92306        1.01839       0.923192        1.01852      -0.00469771  -0.00130391
  11956.008       0.918715        1.01839       0.918852        1.01852      -0.00276165   0.00358664
  11956.513       0.920291        1.01838       0.920434        1.01852      -0.00110247   0.00555941
  11957.011       0.91761        1.01837       0.917757        1.01852       0.00281166   0.00943584
  11957.509       0.923093        1.01836       0.923246        1.01851       0.00829941   0.00453847
  11958.007       0.925879        1.01834       0.926038        1.0185       0.00733379  -0.000738054
  11958.499       0.930355        1.01832       0.930519        1.01848       0.00756851   0.00100209
  11959.016       0.933517        1.01829       0.933686        1.01846       0.008345   0.00549588
  11959.502       0.938725        1.01826       0.938899        1.01844       0.0130803   0.00250132
  11960.007       0.946474        1.01823       0.946655        1.01841       0.0108228  -0.0047469
  11960.499       0.949514        1.01819       0.9497        1.01838       0.00834815  -8.02187e-05
  11960.998       0.954745        1.01815       0.954937        1.01835       0.0107433   0.00412297
  11961.515       0.960426        1.01811       0.960624        1.01831       0.0125358   0.00156368
  11962.001       0.967322        1.01806       0.967526        1.01827       0.0123122  -0.00288533
  11962.506       0.972627        1.01801       0.972838        1.01822       0.00967649  -0.00585037
  11963.030       0.977274        1.01795       0.977492        1.01817       0.00629507   0.0033148
  11963.503       0.978906        1.0179       0.97913        1.01812       0.0129827   0.0101412
  11964.008       0.989982        1.01784       0.990212        1.01807       0.0162213   0.00188045
  11964.507       0.995187        1.01777       0.995424        1.01801       0.0148701  -0.000824793
  11965.018        1.005        1.0177        1.00525        1.01795       0.0153881  -0.00280691
  11965.511        1.01064        1.01763        1.01089        1.01789       0.0120519  -0.00331262
  11966.004        1.01688        1.01756        1.01713        1.01782       0.0121242   0.00105338
  11966.515        1.02281        1.01748        1.02307        1.01775       0.0131096   0.000967538
  11967.002        1.02996        1.01741        1.03023        1.01768       0.0130897   0.00192521
  11967.507        1.03579        1.01732        1.03607        1.0176       0.0150191   0.00210945
  11967.994        1.04486        1.01724        1.04514        1.01752       0.0151821  -0.008568
  11968.262        1.04725        1.01719        1.04754        1.01748       0.00855108  -0.0027135
  11968.773        1.05153        1.0171        1.05182        1.0174       0.0130658   0.00511912
  11969.316        1.06103        1.017        1.06134        1.0173       0.0139492   0.00145455
  11969.903        1.06728        1.01689        1.06759        1.0172       0.0147087   0.00060509
  11970.527        1.07884        1.01676        1.07916        1.01709       0.0146818  -0.00154953
  11971.207        1.08643        1.01662        1.08677        1.01696       0.0126874  -0.00376355
  11971.938        1.09674        1.01647        1.09709        1.01682       0.00937216  -0.00181377
  11972.731        1.10071        1.0163        1.10107        1.01666       0.00992445   0.00128505
  11973.592        1.11316        1.0161        1.11353        1.01647       0.0114984  -0.0014503
  11974.529        1.12139        1.01588        1.12178        1.01627       0.00731608  -0.00449076
  11975.547        1.12746        1.01563        1.12787        1.01604       0.00271895  -0.00347909
  11976.647        1.12715        1.01536        1.12757        1.01578      -5.15801e-05  -0.00254151
  11977.840        1.12734        1.01504        1.12779        1.01549      -0.00310873  -0.00217567
  11979.084        1.11957        1.01471        1.12004        1.01518      -0.00535413  -0.00210497
  11980.359        1.11386        1.01435        1.11435        1.01485      -0.00841114  -0.00243432
  11981.635        1.09812        1.01399        1.09864        1.01451      -0.0115636  -0.00128437
  11982.923        1.08421        1.01361        1.08476        1.01415      -0.011704  -0.000531419
  11984.224        1.06781        1.01322        1.06838        1.01379      -0.0129397  -0.000406936
  11985.538        1.05037        1.01281        1.05097        1.01341      -0.0127682  -9.07658e-05
  11986.865        1.03409        1.0124        1.03472        1.01303      -0.0131793   0.000765754
  11988.198        1.01532        1.01198        1.01597        1.01263      -0.0107314   0.00149416
  11989.557        1.0052        1.01154        1.00589        1.01223      -0.00915722   0.000135165
  11990.916       0.990431        1.0111       0.99115        1.01182      -0.010364   0.000310185
  11992.294       0.976839        1.01065       0.977589        1.0114      -0.00830824   0.00143345
  11993.678       0.967478        1.01019       0.968262        1.01098      -0.00640383   0.00161761
  11995.076       0.959022        1.00973       0.959841        1.01055      -0.00380788   0.00163793
  11996.493       0.956762        1.00927       0.957616        1.01012      -0.00179452   0.000985945
  11997.903       0.953949        1.0088       0.954838        1.00969      -0.00102032   0.000708729
  11999.346       0.953851        1.00833       0.954778        1.00926       0.000227551   0.00046061
  12000.801       0.954608        1.00785       0.955574        1.00882       0.000314392   0.000335725
  12002.244       0.954762        1.00739       0.955768        1.00839       0.00120062   0.000843275
  12003.719       0.958111        1.00692       0.959157        1.00797       0.00277498   0.000350738
  12005.219       0.963018        1.00645       0.964107        1.00754       0.0022441   0.000481256
  12006.701       0.964804        1.00599       0.965935        1.00713       0.00421019   0.000698828
  12008.215       0.97563        1.00554       0.976805        1.00671       0.00433744  -0.000848879
  12009.735       0.977963        1.00509       0.979184        1.00632       0.00163477  -0.00031396
  12011.268       0.980622        1.00466       0.981889        1.00593       0.00337876   0.000490795
  12012.815       0.988368        1.00424       0.989684        1.00555       0.00314618  -0.000467227
  12014.374       0.990392        1.00383       0.991757        1.00519       0.00192778  -0.000330897
  12015.946       0.994405        1.00343       0.995821        1.00484       0.00211001   6.93571e-05
  12017.531       0.997054        1.00304       0.998522        1.0045       0.00214677  -0.000375294
  12019.129        1.00124        1.00266        1.00276        1.00418       0.000915296  -0.000590708
  12020.728       0.99998        1.0023        1.00156        1.00387       0.000258397   0.000534661
  12022.346        1.00207        1.00195        1.0037        1.00358       0.00263509   0.00048429
  12023.977        1.00854        1.00161        1.01023        1.0033       0.00183186  -0.00106481
  12025.615        1.00806        1.00128        1.00981        1.00303      -0.000845471  -0.000927821
  12027.272        1.00576        1.00096        1.00756        1.00277      -0.00122513   0.000360349
  12028.942        1.00398        1.00066        1.00585        1.00253       0.000353518   0.000318364
  12030.625        1.00694        1.00036        1.00888        1.0023      -0.000157493  -0.000538496
  12032.309        1.00345        1.00008        1.00545        1.00208      -0.0014596  -0.000141498
  12034.012        1.002       0.999814        1.00406        1.00188      -0.000636718   0.000344341
  12035.728        1.00127       0.999556        1.00341        1.00169      -0.000282158  -0.00017547
  12037.458        1.00103       0.999308        1.00323        1.00151      -0.00124132  -0.000348018
  12039.194       0.996972       0.999073       0.999245        1.00135      -0.00148821   0.000439989
  12040.943       0.995839       0.998849       0.998185        1.00119       0.000292264   0.000949194
  12042.718       0.998002       0.998633        1.00042        1.00105       0.00185713   3.69474e-05
  12044.494        1.00243       0.99843        1.00493        1.00093       0.000423457  -0.000828247
  12046.270       0.999506       0.998239        1.00208        1.00081      -0.00108472  -1.51613e-05
  12048.085       0.998538       0.998054        1.00119        1.00071       0.000369016   0.000640673
  12049.900        1.00085       0.997882        1.00358        1.00062       0.00124079   0.000186398
  12051.722        1.00305       0.997719        1.00587        1.00054       0.001047   6.16851e-05
  12053.557        1.00467       0.997566        1.00758        1.00047       0.0014664   0.000167444
  12055.412        1.00846       0.997421        1.01145        1.00041       0.00166489  -0.000116186
  12057.274        1.01086       0.997285        1.01394        1.00037       0.00103458  -0.000321466
  12059.149        1.01233       0.997158        1.0155        1.00033       0.000463636  -9.59905e-05
  12061.037        1.01261       0.997039        1.01587        1.0003       0.000673337   0.000152962
  12062.933        1.01488       0.996929        1.01823        1.00029       0.00104238   7.26582e-05
  12064.854        1.01659       0.996825        1.02004        1.00028       0.000950637  -0.000384873
  12066.769        1.01852       0.996728        1.02208        1.00028      -0.000434219  -0.000271448
  12068.704        1.01491       0.996638        1.01857        1.00029      -9.46007e-05  -0.000142357
  12070.653        1.01816       0.996554        1.02191        1.00031      -0.000987076  -0.000338557
  12072.602        1.01107       0.996477        1.01493        1.00034      -0.00141413   8.39942e-05
  12074.590        1.01259       0.996403        1.01656        1.00037      -0.000656391  -0.000322776
  12076.559        1.00847       0.996335        1.01254        1.00041      -0.00269145  -0.000552578
  12078.561        1.0019       0.99627        1.00609        1.00046      -0.00285084   0.000312246
  12080.576       0.997017       0.99621        1.00132        1.00051      -0.00143709   0.000489025
  12082.586       0.996116       0.996152        1.00053        1.00057      -0.000882565   2.59331e-05
  12084.622       0.993446       0.996097       0.997979        1.00063      -0.00133219  -0.000219849
  12086.671       0.990674       0.996043       0.995326        1.0007      -0.0017806  -6.26431e-05
  12088.727       0.986136       0.99599       0.990911        1.00076      -0.00158935   0.000150052
  12090.797       0.984116       0.995938       0.989015        1.00084      -0.0011615   0.000316511
  12092.880       0.981313       0.995885       0.986339        1.00091      -0.000274948   0.000209401
  12094.976       0.982967       0.995832       0.988122        1.00099      -0.000286271  -0.000284538
  12097.086       0.980109       0.995776       0.985396        1.00106      -0.00147192  -0.00022501
  12099.204       0.976745       0.995718       0.982166        1.00114      -0.00123745   0.0004699
  12101.322       0.974868       0.995657       0.980424        1.00121       0.000518206   0.000674872
  12103.472       0.978957       0.995592       0.984653        1.00129       0.0016433  -3.18195e-05
  12105.624       0.981937       0.995521       0.987775        1.00136       0.000381318  -0.000473736
  12107.795       0.980605       0.995444       0.986587        1.00143      -0.000404514   3.06909e-05
  12109.967       0.98018       0.995361       0.986308        1.00149       0.000514624   0.000430743
  12112.159       0.982851       0.99527       0.989128        1.00155       0.00147533   0.000120691
  12114.371       0.986678       0.995169       0.993107        1.0016       0.00104616   8.87134e-07
  12116.584       0.987481       0.995061       0.994064        1.00164       0.00147926   1.01447e-05
  12118.811       0.993245       0.994943       0.999986        1.00168       0.0010912  -0.000232958
  12121.051       0.992355       0.994817       0.999256        1.00172       0.000438709   0.000128059
  12123.305       0.995216       0.994682        1.00228        1.00175       0.0016667   0.000213779
  12125.572       0.99989       0.994538        1.00712        1.00177       0.00140527  -0.000265468
  12127.840        1.00159       0.994386        1.00899        1.00178       0.000462586  -9.94965e-05
  12130.135        1.002       0.994224        1.00957        1.00179       0.000951256   2.56586e-05
  12132.437        1.00596       0.994054        1.01371        1.0018       0.000580536  -0.000222162
  12134.753        1.00468       0.993875        1.0126        1.0018      -7.46884e-05  -2.62858e-06
  12137.076        1.00562       0.993688        1.01372        1.00179       0.000568342   7.95159e-05
  12139.413        1.00733       0.993492        1.01561        1.00178       0.000295856  -0.00025301
  12141.757        1.007       0.993289        1.01547        1.00176      -0.000616024  -0.000303832
  12144.128        1.00443       0.993075        1.01308        1.00173      -0.00113674  -6.2997e-05
  12146.487        1.00163       0.992856        1.01047        1.0017      -0.000913987   0.000169573
  12148.886        1.00008       0.992625        1.00912        1.00167      -0.000330018   0.000169851
  12151.285        1.00004       0.992388        1.00929        1.00163      -9.90611e-05  -8.00161e-05
  12153.692       0.999602       0.992142        1.00905        1.00159      -0.000714591  -0.00025751
  12156.119       0.996588       0.991888        1.00624        1.00154      -0.00134384  -1.26802e-05
  12158.553       0.993068       0.991626        1.00293        1.00148      -0.000776237   0.000188402
  12161.002       0.992797       0.991356        1.00287        1.00143      -0.000423893  -0.000140963
  12163.464       0.990987       0.991078        1.00127        1.00136      -0.00146847  -3.46943e-05
  12165.940       0.985545       0.990793       0.996048        1.0013      -0.000595231   0.000263006
  12168.411       0.988042       0.990501       0.998765        1.00122      -0.000167376  -2.12752e-05
  12170.896       0.984716       0.990202       0.995662        1.00115      -0.00070066   9.94669e-05
  12173.420       0.984532       0.989893       0.995708        1.00107       0.000330864   0.000181399
  12175.952       0.986389       0.989576       0.997797        1.00098       0.000216568  -4.05679e-05
  12178.472       0.985627       0.989256       0.997269        1.0009       0.000125907  -4.75687e-05
  12181.020       0.987027       0.988926       0.998908        1.00081      -2.44716e-05   4.43556e-05
  12183.581       0.985502       0.98859       0.997625        1.00071       0.00035248   5.78534e-05
  12186.156       0.988837       0.988246        1.00121        1.00062       0.000272675  -0.000119893
  12188.732       0.986906       0.987898       0.999525        1.00052      -0.000265128   3.38709e-05
  12191.322       0.987467       0.987543        1.00034        1.00041       0.000447669   5.3067e-05
  12193.933       0.989235       0.98718        1.00236        1.00031       1.0879e-05  -0.000188654
  12196.545       0.987524       0.986813        1.00091        1.0002      -0.000537616  -7.50521e-05
  12199.177       0.986415       0.986439        1.00007        1.00009      -0.000382732   4.4912e-05
  12201.818       0.985506       0.98606       0.999428       0.999982      -0.000300804  -2.99907e-05
  12204.479       0.98482       0.985674       0.999016       0.999869      -0.000541712  -7.58565e-05
  12207.140       0.982623       0.985284       0.997093       0.999755      -0.000704573   0.000164765
  12209.830       0.98105       0.984887       0.995802       0.999639       0.000339964   0.000183029
  12212.501       0.984445       0.98449       0.999479       0.999523       0.000276462  -0.000167439
  12215.218       0.98254       0.984083       0.997863       0.999406      -0.00056228  -0.000149152
  12217.930       0.981392       0.983674       0.997007       0.999288      -0.000533406   2.67293e-05
  12220.663       0.979635       0.983259       0.995547       0.999171      -0.000416731   7.8613e-05
  12223.398       0.979113       0.982842       0.995325       0.999053      -0.000103605  -2.03134e-05
  12226.153       0.979067       0.98242       0.995583       0.998936      -0.000528238  -7.66848e-05
  12228.922       0.976195       0.981995       0.99302       0.99882      -0.000527242   0.000119011
  12231.693       0.976146       0.981567       0.993283       0.998705       0.000131071   4.02863e-05
  12234.484       0.976924       0.981136       0.994379       0.99859      -0.000303166  -6.8745e-05
  12237.283       0.974451       0.980702       0.992227       0.998478      -0.000253269   2.4878e-05
  12240.097       0.975503       0.980266       0.993605       0.998367      -0.000163528   7.90632e-05
  12242.925       0.973528       0.979827       0.991961       0.998259       0.000192775   0.000144118
  12245.754       0.976593       0.979388       0.995359       0.998154       0.000651789   5.82824e-05
  12248.611       0.977235       0.978945       0.99634       0.998051       0.00052418  -0.000138078
  12251.469       0.979589       0.978502       0.999038       0.997951      -0.000137325  -0.000200727
  12254.349       0.976447       0.978058       0.996244       0.997855      -0.00062745   3.92464e-05
  12257.229       0.975975       0.977614       0.996125       0.997764       8.87228e-05   0.000169992
  12260.137       0.97696       0.977167       0.997469       0.997676       0.000356565   9.1085e-05
  12263.040       0.978047       0.976722       0.998916       0.997592       0.000618018  -7.59186e-05
  12265.971       0.980565       0.976274        1.0018       0.997511      -8.6306e-05  -7.65782e-05
  12268.889       0.977542       0.975829       0.999149       0.997436       0.000170074   0.000122916
  12271.856       0.981566       0.975377        1.00355       0.997363       0.000637069  -7.37247e-05
  12274.804       0.98131       0.97493        1.00367       0.997294      -0.000265941  -0.000137936
  12277.786       0.979989       0.974477        1.00274       0.997229      -0.000180917   7.6539e-05
  12280.763       0.980232       0.974027        1.00337       0.997169       0.000190193  -4.70413e-05
  12283.761       0.981126       0.973573        1.00466       0.997111      -0.000462012  -0.000127231
  12286.768       0.977458       0.973119        1.0014       0.997058      -0.000573791   0.000122582
  12289.789       0.977667       0.972664        1.00201       0.997008       0.000276852   8.47374e-05
  12292.825       0.979134       0.972206        1.00389       0.996962      -6.05539e-05  -0.000201049
  12295.869       0.977299       0.971748        1.00247       0.99692      -0.000945447  -0.000116316
  12298.921       0.973371       0.971289       0.998963       0.996881      -0.000769602   0.000110273
  12301.987       0.97259       0.970828       0.998608       0.996846      -0.00027072   8.57434e-05
  12305.075       0.971705       0.970363       0.998155       0.996814      -0.000241877  -2.68814e-05
  12308.158       0.971098       0.9699       0.997983       0.996786      -0.000436605   1.05427e-05
  12311.276       0.968998       0.969431       0.996327       0.996761      -0.000176505  -9.99254e-06
  12314.389       0.969998       0.968963       0.997774       0.99674      -0.000498861  -8.40135e-05
  12317.529       0.965878       0.96849       0.994109       0.996721      -0.000701858   8.57291e-05
  12320.671       0.965588       0.968017       0.994278       0.996707       3.97659e-05  -2.82648e-07
  12323.822       0.966128       0.967543       0.995281       0.996695      -0.000703637  -3.74094e-05
  12326.981       0.961149       0.967066       0.99077       0.996687      -0.000196261   0.00012406
  12330.174       0.964882       0.966584       0.99498       0.996682       8.44411e-05  -1.04882e-05
  12333.356       0.961687       0.966102       0.992264       0.99668      -0.000263128   2.05786e-05
  12336.566       0.9632       0.965616       0.994264       0.996681       0.000215981  -2.92373e-05
  12339.778       0.963074       0.965129       0.99463       0.996685      -0.000450893  -0.000124847
  12342.992       0.960302       0.96464       0.992354       0.996692      -0.000586223   4.55318e-05
  12346.234       0.95929       0.964146       0.991845       0.996701      -0.000156967   0.000178702
  12349.497       0.959281       0.963647       0.992348       0.996714       0.000576289   0.000118626
  12352.763       0.963052       0.963147       0.996634       0.996729       0.000617521  -4.87383e-05
  12356.036       0.963319       0.962644       0.997422       0.996747       0.000257594  -0.00014659
  12359.325       0.964743       0.962137       0.999373       0.996767      -0.000344459  -8.94967e-05
  12362.629       0.961048       0.961627       0.996212       0.99679      -0.000332422   7.59515e-05
  12365.941       0.962543       0.961113       0.998246       0.996816       0.000158044  -2.94756e-05
  12369.262       0.962097       0.960596       0.998344       0.996843      -0.000527934  -2.63915e-05
  12372.604       0.959026       0.960074       0.995825       0.996873      -1.78109e-05   7.96291e-05
  12375.942       0.961978       0.95955       0.999333       0.996905       4.0203e-06  -7.7076e-05
  12379.315       0.959053       0.959018       0.996974       0.99694      -0.000535045  -1.78833e-05
  12382.683       0.958371       0.958485       0.996862       0.996976      -0.000116533  -2.65359e-05
  12386.073       0.958265       0.957946       0.997333       0.997014      -0.00071438  -2.78719e-05
  12389.472       0.953521       0.957403       0.993172       0.997054      -0.000305747   0.000189997
  12392.879       0.956184       0.956856       0.996424       0.997096       0.000578722   6.72942e-05
  12396.315       0.957481       0.956301       0.99832       0.997139       0.000154754  -0.000108532
  12399.733       0.957245       0.955746       0.998682       0.997184      -0.000165126  -0.000103839
  12403.186       0.956347       0.955182       0.998394       0.99723      -0.000558723  -3.10229e-05
  12406.648       0.953381       0.954614       0.996045       0.997277      -0.000379649   8.28639e-05
  12410.118       0.953715       0.95404       0.997001       0.997326       1.57145e-05   3.75308e-05
  12413.611       0.953491       0.95346       0.997407       0.997376      -0.000118315  -4.77615e-06
  12417.099       0.952889       0.952876       0.99744       0.997427      -1.76259e-05  -7.22567e-06
  12420.609       0.953367       0.952285       0.998561       0.997479      -0.000168879  -5.70446e-05
  12424.135       0.951701       0.951687       0.997545       0.997531      -0.000418969   3.52982e-05
  12427.662       0.950412       0.951085       0.996912       0.997584       8.0086e-05   9.33994e-05
  12431.219       0.952268       0.950473       0.999433       0.997638       0.000242682  -3.85552e-05
  12434.764       0.952136       0.949859       0.999969       0.997692      -0.000193718  -0.000106383
  12438.331       0.95089       0.949236       0.999401       0.997746      -0.000513965  -2.49734e-05