File: E2/C1s_Imidazole_ISEELS_Hitchcock_Norm_Athena.txt
# XDI/1.0 Athena/0.9.24
# Element.edge:                  K
# Element.symbol:                C
# Column.1:                      energy eV
# Column.2:                      norm
# Column.3:                      nbkg
# Column.4:                      flat
# Column.5:                      fbkg
# Column.6:                      nder
# Column.7:                      nsec
# Athena.e0:                     286.1819
# Athena.eshift:                 0
# Athena.rbkg:                   1.0
# Athena.importance:             1
# Athena.standard:               None
# Athena.bkg_kweight:            2
# Athena.edge_step:              11035.1
# Athena.fixed_step:             no
# Athena.pre_edge_range:         -8.364 -1.499
# Athena.pre_edge_line:          4248.94 - 7.2978 * E
# Athena.normalization_range:    21.451 37.864
# Athena.post_edge_polynomial:   61847.5 - 170.004 * E + 0 * E^2 + 0 * E^3
# Athena.spline_range_energy:    0.000 38.795
# Athena.clamps:                 0 24
# Athena.spline_range_k:         0.000 3.191
# Athena.kweight:                2
# Athena.window:                 hanning
# Athena.phase_correction:       no
# Athena.k_range:                1.191 3.000
# Athena.dk:                     1
# Athena.r_range:                1 3
# Athena.dr:                     0.0
# Athena.window:                 hanning
# Athena.plot_multiplier:        1
# Athena.y_offset:               0
# ///
#------------------------
#   e         norm        flat        fbkg        nder        nsec
  277.818       0.0122895   0.0122895  -0.201294      -0.060353   0.300405
  277.95       0.00432893   0.00432893  -0.201207      -0.0207295   0.134209
  278.081       0.00682104   0.00682104  -0.20112      -0.0249486   0.0909438
  278.213      -0.00225252  -0.00225252  -0.201032       0.00326142   0.146917
  278.345       0.0076814   0.0076814  -0.200945       0.0138081  -0.0638873
  278.477       0.00139006   0.00139006  -0.200858      -0.0135921  -0.0223031
  278.873       0.000511589   0.000511589  -0.200596       0.00204322  -0.0164229
  279.005       0.00246786   0.00246786  -0.200509      -0.0222551  -0.096677
  279.137      -0.00535931  -0.00535931  -0.200422      -0.0234602   0.168704
  279.268      -0.00372094  -0.00372094  -0.200335       0.022249   0.0983272
  279.4       0.000509986   0.000509986  -0.200247       0.00247854  -0.0314349
  279.532      -0.0030671  -0.0030671  -0.20016       0.0139565   0.0564552
  279.664       0.00419171   0.00419171  -0.200073       0.0173714  -0.149238
  279.796       0.00151548   0.00151548  -0.199986      -0.0254124  -0.13387
  279.928      -0.00251207  -0.00251207  -0.199899      -0.0179434   0.0613842
  280.192      -0.00558472  -0.00558472  -0.199724      -0.00112268   0.121952
  280.324      -0.00295632  -0.00295632  -0.199637       0.0303131   0.0925667
  280.455       0.00241189   0.00241189  -0.19955       0.0232964  -0.260816
  280.587       0.00318928   0.00318928  -0.199462      -0.0384901  -0.178597
  280.719      -0.00774181  -0.00774181  -0.199375      -0.0238174   0.212907
  280.851      -0.00309376  -0.00309376  -0.199288       0.0176748   0.18634
  280.983      -0.00307921  -0.00307921  -0.199201       0.025339  -0.0353975
  281.115       0.00359066   0.00359066  -0.199113       0.0083369  -0.159563
  281.247      -0.000879934  -0.000879934  -0.199026      -0.0167537  -0.0587679
  281.379      -0.000828953  -0.000828953  -0.198939      -0.00716608   0.14723
  281.511      -0.00277035  -0.00277035  -0.198852       0.0220855  -0.0105139
  281.643       0.00499721   0.00499721  -0.198765      -0.00993964  -0.217864
  281.774      -0.00539242  -0.00539242  -0.198677      -0.0353871   0.130024
  281.906      -0.00433792  -0.00433792  -0.19859       0.0243606  -0.00265126
  282.038       0.00103391   0.00103391  -0.198503      -0.0360865  -0.0828116
  282.17      -0.0138575  -0.0138575  -0.198416       0.00251495   0.163335
  282.302       0.00169736   0.00169736  -0.198328       0.0070013  -0.0682531
  282.434      -0.0120106  -0.0120106  -0.198241      -0.0154902   0.125391
  282.566      -0.00238896  -0.00238896  -0.198154       0.0400793   0.0529172
  282.698      -0.00143767  -0.00143767  -0.198067      -0.00153066  -0.176963
  282.83      -0.00279275  -0.00279275  -0.197979      -0.0066034  -0.00301089
  282.962      -0.00317898  -0.00317898  -0.197892      -0.00232463   0.123655
  283.093      -0.00340575  -0.00340575  -0.197805       0.0260044  -0.0443731
  283.225       0.00368097   0.00368097  -0.197718      -0.0140303  -0.14707
  283.357      -0.00710694  -0.00710694  -0.197631      -0.0127926   0.0999293
  283.489       0.000306294   0.000306294  -0.197543       0.0123311   0.0467982
  283.753      -0.00222752  -0.00222752  -0.197369       0.00572547  -0.0623848
  283.885       0.00257186   0.00257186  -0.197282      -0.0123546  -0.113901
  284.017      -0.00548666  -0.00548666  -0.197194      -0.0243217  -0.0155685
  284.149      -0.00384421  -0.00384421  -0.197107      -0.0164616    1.04451
  284.174      -0.00807935  -0.00807935  -0.19709       0.140189       0.277537
  284.241       0.00912326   0.00912326  -0.197046       0.00921064   -1.52167
  284.308      -0.00684697  -0.00684697  -0.197002      -0.0634103   0.382752
  284.375       0.000632628   0.000632628  -0.196958       0.0604611   0.175224
  284.442       0.00124877   0.00124877  -0.196913      -0.0399477   0.878905
  284.509      -0.00471238  -0.00471238  -0.196869       0.178059        1.10161
  284.576       0.025073   0.025073  -0.196825       0.107448       -1.61195
  284.643       0.00967485   0.00967485  -0.19678      -0.0377815   -1.11675
  284.71       0.0200141   0.0200141  -0.196736      -0.0420852  -0.128007
  284.776       0.00404385   0.00404385  -0.196692      -0.0549088    1.02181
  284.843       0.0126673   0.0126673  -0.196648       0.0946328    1.51557
  284.91       0.0167152   0.0167152  -0.196603       0.148026      -0.127167
  284.977       0.032488   0.032488  -0.196559       0.0776051   -1.56463
  285.044       0.0270987   0.0270987  -0.196515      -0.0613213  -0.19198
  285.111       0.0242832   0.0242832  -0.196471       0.0519182    1.13281
  285.178       0.0340506   0.0340506  -0.196426       0.0903617   0.44723
  285.245       0.0363826   0.0363826  -0.196382       0.111802       0.351927
  285.312       0.0490097   0.0490097  -0.196338       0.13745      -0.894499
  285.379       0.0547734   0.0547734  -0.196294      -0.0078816  -0.19216
  285.446       0.0479544   0.0479544  -0.196249       0.111719        3.62333
  285.513       0.0697326   0.0697326  -0.196205       0.477282        4.26566
  285.58       0.111815       0.111815      -0.196161       0.682464        1.97664
  285.647       0.161046       0.161046      -0.196117       0.741756        3.68068
  285.714       0.211136       0.211136      -0.196072        1.17531        8.08092
  285.78       0.31842       0.31842      -0.196028        1.82379        6.01277
  285.847       0.455159       0.455159      -0.195984        1.97982        4.37937
  285.914       0.583319       0.583319      -0.19594        2.40975        11.9356
  285.981       0.777825       0.777825      -0.195895        3.57799        12.001
  286.048        1.06241        1.06241      -0.195851        4.01668        4.18918
  286.115        1.31526        1.31526      -0.195807        4.1385        3.02631
  286.182        1.61614        1.61614      -0.195763        4.4216       -2.8622
  286.249        1.90731        1.9083      -0.19473        3.75526       -9.96756
  286.316        2.11897        2.12095      -0.1937        3.08695       -13.1096
  286.383        2.32034        2.3233      -0.192669        2.00119       -11.5897
  286.45        2.38673        2.39068      -0.191638        1.53624       -8.79972
  286.517        2.52605        2.53098      -0.190606       0.822908       -7.17434
  286.584        2.49692        2.50284      -0.189576       0.575598       -1.3691
  286.65        2.60306        2.60997      -0.188545       0.639723       -5.2866
  286.717        2.58252        2.59041      -0.187514      -0.13175       -6.71859
  286.784        2.58542        2.5943      -0.186482      -0.259897       -2.92185
  286.851        2.54772        2.55758      -0.185452      -0.522985       -4.77765
  286.918        2.51544        2.5263      -0.184421      -0.899146       -10.117
  286.985        2.42741        2.43925      -0.18339       -1.87664       -6.42292
  287.052        2.26416        2.27699      -0.182358       -1.75918      -0.138196
  287.119        2.19186        2.20567      -0.181327       -1.89514       -5.52081
  287.186        2.01059        2.02539      -0.180297       -2.49786       -4.53858
  287.253        1.85764        1.87343      -0.179266       -2.5024      -0.209365
  287.32        1.67552        1.6923      -0.178234       -2.52589        2.18883
  287.387        1.51943        1.53719      -0.177203       -2.20932        4.90584
  287.454        1.37991        1.39866      -0.176173       -1.86949        2.24696
  287.52        1.26929        1.28902      -0.175142       -1.90867      -0.739227
  287.587        1.12434        1.14507      -0.17411       -1.96847        3.48505
  287.654        1.00571        1.02742      -0.173079       -1.44203        5.83548
  287.721       0.9314       0.954096      -0.172049       -1.18769        5.13186
  287.788       0.846796       0.870478      -0.171018      -0.755384        4.66409
  287.855       0.830254       0.854924      -0.169986      -0.563166       0.155414
  287.922       0.771388       0.797044      -0.168955      -0.734574      -0.0510956
  287.989       0.731968       0.758611      -0.167924      -0.570003        2.17492
  288.056       0.695121       0.722751      -0.166894      -0.44357        2.76256
  288.123       0.672574       0.701191      -0.165862      -0.200096        3.38148
  288.19       0.668328       0.697932      -0.164831       0.00921064   0.478087
  288.257       0.673806       0.704396      -0.1638      -0.136128       -3.36804
  288.324       0.650115       0.681691      -0.16277      -0.441433      -0.110887
  288.39       0.614698       0.647263      -0.161737      -0.150975        3.01436
  288.457       0.629899       0.66345      -0.160707      -0.0378102   -2.1733
  288.524       0.609639       0.644177      -0.159676      -0.441762       -1.97908
  288.591       0.570791       0.606315      -0.158646      -0.302611        1.82077
  288.658       0.56912       0.605631      -0.157613      -0.197961        1.54662
  288.725       0.544284       0.581782      -0.156583      -0.0955179  -0.176813
  288.792       0.556339       0.594824      -0.155552      -0.221619      -0.95719
  288.859       0.514632       0.554102      -0.154521      -0.22359        2.87225
  288.926       0.526401       0.566859      -0.153489       0.162976        3.82964
  288.993       0.536454       0.577899      -0.152459       0.289199      -0.0949401
  289.06       0.565095       0.607527      -0.151428       0.150273       -2.15648
  289.127       0.556561       0.599978      -0.150397       0.000661327   0.685018
  289.194       0.565184       0.60959      -0.149365       0.241997        1.66005
  289.26       0.588964       0.634356      -0.148334       0.222943       -2.47461
  289.327       0.595014       0.641392      -0.147304      -0.0891061   -1.34205
  289.394       0.577042       0.624407      -0.146273       0.0433759    1.78692
  289.461       0.600822       0.649175      -0.145241       0.150162       -1.80348
  289.528       0.597148       0.646488      -0.14421      -0.19811       -3.3537
  289.595       0.574315       0.62464      -0.14318      -0.298562       0.591714
  289.662       0.557201       0.608513      -0.142149      -0.118938        1.72427
  289.729       0.558389       0.610689      -0.141117      -0.0676821   0.653765
  289.796       0.548138       0.601424      -0.140086      -0.0313991   0.542733
  289.863       0.554188       0.60846      -0.139056       0.00493564    1.45273
  289.93       0.548798       0.604058      -0.138025       0.162976        1.89804
  289.997       0.57601       0.632257      -0.136993       0.259084       0.942583
  290.064       0.58349       0.640723      -0.135962       0.289188        1.51073
  290.13       0.614704       0.672923      -0.134932       0.461219       0.88284
  290.197       0.645201       0.704407      -0.133901       0.407312      -0.415846
  290.264       0.669243       0.729437      -0.132869       0.405538       0.982004
  290.331       0.699502       0.760683      -0.131838       0.538802      -0.104858
  290.398       0.741334       0.803501      -0.130807       0.391508       -2.00147
  290.465       0.751886       0.815039      -0.129777       0.271006       0.198214
  290.532       0.777622       0.841763      -0.128745       0.418048      -0.0640441
  290.599       0.807863       0.87299      -0.127714       0.26243       -1.03429
  290.666       0.812735       0.878849      -0.126683       0.27966        1.8751
  290.733       0.845281       0.912382      -0.125653       0.513318        1.03771
  290.8       0.881469       0.949557      -0.12462       0.41861       -2.19878
  290.867       0.901333       0.970408      -0.12359       0.218901      -0.502335
  290.934       0.910758       0.980819      -0.122559       0.351398        1.81378
  291       0.94835        1.0194      -0.121529       0.461585      -0.324473
  291.067       0.972564        1.0446      -0.120496       0.307951       -1.15113
  291.134       0.989585        1.06261      -0.119466       0.307449       0.623923
  291.201        1.0137        1.08771      -0.118435       0.391432       -1.03013
  291.268        1.04196        1.11695      -0.117404       0.169618       -1.21325
  291.335        1.03641        1.11239      -0.116372       0.228978        2.31664
  291.402        1.07262        1.14959      -0.115342       0.479817       0.636238
  291.469        1.10061        1.17857      -0.114311       0.314107       -1.89638
  291.536        1.11465        1.19359      -0.11328       0.226081      -0.199726
  291.603        1.13088        1.21081      -0.112248       0.287363       0.798972
  291.67        1.15312        1.23404      -0.111217       0.333064       0.338166
  291.737        1.17545        1.25735      -0.110187       0.33261       -1.5203
  291.804        1.19763        1.28052      -0.109156       0.129648      -0.369048
  291.871        1.19281        1.27668      -0.108124       0.283194        2.18956
  291.938        1.23555        1.32041      -0.107093       0.42283       -1.21607
  292.004        1.24938        1.33523      -0.106063       0.120484       -4.0912
  292.071        1.25168        1.33852      -0.105031      -0.124982      -0.667406
  292.138        1.23265        1.32047      -0.104       0.0311186    1.98563
  292.205        1.25584        1.34465      -0.102969       0.140696       0.33756
  292.272        1.25147        1.34127      -0.101939       0.0762841   -1.10859
  292.339        1.26606        1.35684      -0.100906      -0.00774421   -3.12179
  292.406        1.25044        1.34221      -0.0998758  -0.341724       -1.587
  292.473        1.22034        1.31309      -0.0988451  -0.220085        1.62693
  292.54        1.22099        1.31473      -0.0978145  -0.124041      -0.560406
  292.607        1.20373        1.29846      -0.0967823  -0.295123       0.722411
  292.674        1.18147        1.27719      -0.0957516  -0.0273103    1.58105
  292.741        1.20007        1.29678      -0.094721  -0.0835788   -2.20371
  292.808        1.17029        1.26798      -0.0936904  -0.322167       0.936279
  292.875        1.15693        1.25561      -0.0926582   0.0417889    1.7613
  292.941        1.17588        1.27555      -0.0916275  -0.0863285   -2.49978
  293.008        1.14538        1.24603      -0.0905969  -0.292682       -1.05398
  293.075        1.13672        1.23836      -0.0895662  -0.227351        1.18506
  293.142        1.11494        1.21757      -0.0885341  -0.134003       0.281931
  293.209        1.11878        1.22239      -0.0875034  -0.1896      -0.55265
  293.276        1.08957        1.19417      -0.0864728  -0.207948      -0.912331
  293.343        1.09096        1.19654      -0.0854421  -0.31167       -1.61865
  293.41        1.04784        1.15441      -0.0844099  -0.424685        2.21796
  293.477        1.03409        1.14165      -0.0833793  -0.0146858    2.62869
  293.544        1.04587        1.15442      -0.0823487  -0.0729658  -0.914875
  293.611        1.02433        1.13386      -0.081318  -0.137096      -0.950915
  293.678        1.02752        1.13804      -0.0802858  -0.200293       -1.10672
  293.745       0.997509        1.10902      -0.0792552  -0.285286       0.915231
  293.811       0.989346        1.10184      -0.0782245  -0.0778355    1.77987
  293.878       0.987095        1.10057      -0.0771939  -0.0471392   0.448201
  293.945       0.983034        1.0975      -0.0761617  -0.0178214  -0.60643
  294.012       0.984709        1.10016      -0.0751311  -0.12834       -1.74458
  294.079       0.965862        1.0823      -0.0741004  -0.251246      -0.547427
  294.146       0.951092        1.06852      -0.0730698  -0.201586        1.94742
  294.213       0.93887        1.05728      -0.0720376   0.00951354    1.72247
  294.28       0.952366        1.07177      -0.071007   0.0290529  -0.300475
  294.347       0.942757        1.06314      -0.0699763  -0.03069   0.206263
  294.414       0.948259        1.06963      -0.0689457   0.0566509  -0.362726
  294.481       0.950343        1.0727      -0.0679135  -0.079259  -0.449353
  294.548       0.937647        1.06099      -0.0668828  -0.00351749    1.74271
  294.615       0.949872        1.07421      -0.0658522   0.153916       0.736939
  294.681       0.958241        1.08356      -0.0648216   0.0950849   -1.72458
  294.748       0.962604        1.08891      -0.0637894  -0.0770053   -1.90906
  294.815       0.94793        1.07522      -0.0627587  -0.160538      -0.475542
  294.882       0.941124        1.0694      -0.0617281  -0.140633       0.988242
  294.949       0.929113        1.05838      -0.0606974  -0.0283114    1.71097
  295.016       0.937333        1.06759      -0.0596653   0.088466   0.596088
  295.083       0.940959        1.0722      -0.0586346   0.0515048   -1.3725
  295.15       0.944224        1.07645      -0.057604  -0.0951738  -0.478932
  295.217       0.928224        1.06144      -0.0565733  -0.0125764    1.23571
  295.284       0.94254        1.07674      -0.0555411   0.0702879  -0.528292
  295.351       0.937636        1.07282      -0.0545105  -0.0833146  -0.510826
  295.418       0.931393        1.06757      -0.0534799   0.00193939    1.38329
  295.492       0.93791        1.07518      -0.0523367   0.111868       0.764423
  295.624       0.954449        1.09366      -0.0503047   0.159487       0.0304221
  295.756       0.979982        1.12114      -0.0482727   0.119893      -0.270053
  295.887       0.986077        1.12918      -0.0462407   0.088247  -0.00660507
  296.019        1.00325        1.1483      -0.0442102   0.118151      -0.171598
  296.151        1.01723        1.16422      -0.0421782   0.0429965  -0.303866
  296.283        1.0146        1.16353      -0.0401462   0.0379914   0.0268121
  296.415        1.02726        1.17814      -0.0381142   0.0500695   0.465455
  296.547        1.0278        1.18063      -0.0360822   0.160779       0.922121
  296.679        1.06967        1.22444      -0.0340501   0.293325      -0.207726
  296.811        1.10518        1.2619      -0.0320181   0.105981      -0.747836
  296.943        1.09763        1.25629      -0.0299861   0.096046  -0.199313
  297.075        1.13052        1.29112      -0.0279541   0.0534017  -0.297434
  297.206        1.11171        1.27426      -0.0259221   0.017583   0.298124
  297.338        1.13516        1.29965      -0.0238901   0.132047       0.26359
  297.47        1.14655        1.31299      -0.021858   0.087118  -0.185263
  297.602        1.15814        1.32652      -0.019826   0.0831744  -0.240814
  297.734        1.16849        1.33882      -0.017794   0.0235912  -0.427457
  297.866        1.16436        1.33664      -0.015762  -0.0295889  -0.421428
  297.998        1.16068        1.3349      -0.01373  -0.0875816  -0.0468008
  298.13        1.14126        1.31742      -0.011698  -0.0419349   0.580999
  298.262        1.14962        1.32773      -0.00966594   0.0656859   0.331499
  298.394        1.15859        1.33864      -0.00763393   0.0455145  -0.509144
  298.525        1.16163        1.34363      -0.00560191  -0.0686263  -0.630261
  298.657        1.14048        1.32443      -0.00356989  -0.120748       0.203936
  298.789        1.12977        1.31566      -0.00153788  -0.0148279   0.123161
  298.921        1.13657        1.3244       0.000494138  -0.0882584  -0.442341
  299.053        1.10649        1.29627       0.00252615  -0.131518       0.290389
  299.185        1.10188        1.2936       0.00455817  -0.0116538   0.282484
  299.317        1.10342        1.29708       0.00659019  -0.0569982  -0.191956
  299.449        1.08684        1.28245       0.0086222  -0.0622918   0.0232702
  299.581        1.08699        1.28454       0.0106542  -0.0508595   0.0667243
  299.712        1.07342        1.27293       0.0126862  -0.0446899   0.12867
  299.844        1.0752        1.27664       0.0147183  -0.0169165  -0.299283
  299.976        1.06896        1.27235       0.0167503  -0.123641      -0.368012
  300.108        1.04258        1.24791       0.0187823  -0.113998       0.536085
  300.24        1.03889        1.24617       0.0208143   0.0177785   0.380155
  300.372        1.04727        1.25649       0.0228448  -0.0137513  -0.280024
  300.504        1.03526        1.24643       0.0248768  -0.0560638  -0.409076
  300.636        1.03248        1.24559       0.0269088  -0.121665      -0.0960627
  300.768        1.00317        1.21823       0.0289408  -0.0814052   0.397846
  300.899        1.011        1.22801       0.0309728  -0.0167138   0.147512
  301.031       0.998759        1.21771       0.0330049  -0.0424914   0.0573746
  301.163       0.999794        1.22069       0.0350369  -0.00157841  -0.117028
  301.295       0.998342        1.22118       0.0370689  -0.0733634  -0.0578043
  301.427       0.980441        1.20522       0.0391009  -0.0168272   0.0846294
  301.559       0.993903        1.22063       0.0411329  -0.0510382  -0.11234
  301.691       0.966977        1.19565       0.0431649  -0.0464625   0.0953465
  301.823       0.981647        1.21226       0.045197  -0.0258858  -0.553952
  301.955       0.960148        1.19271       0.047229  -0.192595      -0.373638
  302.087       0.93084        1.16535       0.049261  -0.124451       0.763397
  302.219       0.927318        1.16377       0.051293   0.00878897   0.535448
  302.35       0.933159        1.17155       0.053325   0.0167998  -0.235176
  302.482       0.93175        1.17209       0.055357  -0.0532504  -0.0258745
  302.614       0.919111        1.1614       0.0573891   0.0099741  -0.0448605
  302.746       0.934381        1.17861       0.0594211  -0.0650846  -0.326342
  302.878       0.901942        1.14812       0.0614531  -0.076115   0.261016
  303.01       0.914302        1.16242       0.0634851   0.00377131   0.0420405
  303.274       0.903434        1.15544       0.0675491  -0.0594795  -0.230873
  303.406       0.890766        1.14472       0.0695811  -0.0875851   0.145785
  303.538       0.880329        1.13623       0.0716132  -0.0210215   0.291548
  303.669       0.88522        1.14306       0.0736452  -0.0106748  -0.106689
  303.801       0.877513        1.1373       0.0756772  -0.049166  -0.221672
  303.933       0.87225        1.13398       0.0777092  -0.0691519  -0.0330496
  304.065       0.859271        1.12295       0.0797412  -0.0578845   0.0997609
  304.197       0.85698        1.1226       0.0817732  -0.0428349   0.051697
  304.329       0.847971        1.11554       0.0838053  -0.0442468   0.010678
  304.461       0.845308        1.11482       0.0858373  -0.0400181  -0.251001
  304.593       0.837414        1.10887       0.0878693  -0.110461      -0.116328
  304.724       0.816179        1.08958       0.0898998  -0.0706938   0.426346
  304.856       0.818772        1.09412       0.0919318   0.0019667   0.102429
  304.988       0.816698        1.09399       0.0939638  -0.0436731   0.0602915
  305.12       0.807251        1.08649       0.0959958   0.0178716   0.180158
  305.252       0.821413        1.10259       0.0980278   0.00385261  -0.485965
  305.384       0.808268        1.09139       0.10006      -0.110326      -0.190211
  305.516       0.792309        1.07738       0.102092      -0.0463251   0.252586
  305.648       0.796047        1.08306       0.104124      -0.0436937   0.103225
  305.78       0.780782        1.06974       0.106156      -0.0190944  -0.330822
  305.912       0.79101        1.08191       0.108188      -0.130965      -0.192151
  306.043       0.746234        1.03908       0.11022      -0.0697839   0.723511
  306.175       0.772601        1.06739       0.112252       0.0598976  -0.121169
  306.307       0.762035        1.05877       0.114284      -0.101748      -0.245867
  306.439       0.74576        1.04444       0.116316      -0.00496207   0.452837
  306.571       0.760726        1.06135       0.118348       0.0177101  -0.24713
  306.703       0.750432        1.053       0.12038      -0.0701549  -0.288605
  306.835       0.742219        1.04674       0.122412      -0.0584238   0.0638855
  306.967       0.73502        1.04148       0.124444      -0.0533019   0.129881
  307.099       0.728158        1.03656       0.126476      -0.0241613   0.240853
  307.231       0.728646        1.039       0.128508       0.0102352   0.0192373
  307.363       0.730858        1.04315       0.13054      -0.0190865  -0.386178
  307.494       0.723611        1.03785       0.132572      -0.0916386  -0.216457
  307.626       0.706684        1.02287       0.134604      -0.0761878   0.266518
  307.758       0.703512        1.02164       0.136636      -0.0213311   0.100445
  307.89       0.701057        1.02113       0.138668      -0.0496905  -0.0897744
  308.022       0.690404        1.01242       0.1407      -0.0450135   0.136867
  308.154       0.689182        1.01315       0.142732      -0.0135851   0.417208
  308.286       0.68682        1.01273       0.144764       0.0650459  -0.15122
  308.418       0.706341        1.03419       0.146796      -0.0534768  -0.477863
  308.55       0.672713        1.00251       0.148828      -0.0610143   0.236827
  308.682       0.690246        1.02199       0.15086       0.00899817   0.0394173
  308.813       0.675087        1.00877       0.152892      -0.050616  -0.086881
  308.945       0.676893        1.01253       0.154924      -0.0139211   0.304732
  309.077       0.671416        1.00899       0.156955       0.0297419  -0.0145379
  309.209       0.684736        1.02426       0.158987      -0.0177547  -0.483422
  309.341       0.666732        1.0082       0.161019      -0.0977848  -0.204432
  309.473       0.65894        1.00235       0.163051      -0.0716839   0.43324
  309.605       0.647822       0.993177       0.165083       0.016504   0.372401
  309.737       0.663294        1.01059       0.167115       0.0265554  -0.0211242
  309.868       0.654827        1.00407       0.169147       0.0109315  -0.0735204
  310       0.666178        1.01737       0.171179       0.00716069  -0.262979
  310.132       0.656716        1.00985       0.173211      -0.0584423  -0.144891
  310.264       0.650761        1.00584       0.175243      -0.0310615   0.136108
  310.396       0.648522        1.00555       0.177275      -0.0225371   0.0215968
  310.528       0.644816        1.00378       0.179307      -0.0253643  -0.168562
  310.66       0.641831        1.00274       0.181339      -0.0670039  -0.0596378
  310.792       0.62714       0.989998       0.183371      -0.0410967   0.118943
  310.924       0.63099       0.995793       0.185403      -0.0356266   0.0829223
  311.056       0.617742       0.98449       0.187435      -0.0192218   0.293935
  311.188       0.625919       0.994612       0.189467       0.0419134   0.148748
  311.319       0.628798       0.999436       0.191499       0.0200179  -0.0338648
  311.451       0.6312        1.00378       0.193531       0.0329799  -0.0810769
  311.583       0.637498        1.01203       0.195563      -0.00137019  -0.834033
  311.634       0.630949        1.00623       0.196347      -0.119481      -0.351328
  311.753       0.617175       0.99421       0.198184      -0.061131   0.353751
  311.873       0.616376       0.995168       0.20002      -0.0351471  -0.0709285
  311.992       0.608799       0.989348       0.201855      -0.0780333   0.142165
  312.111       0.59778       0.980087       0.203691      -0.00126929   0.797635
  312.23       0.608497       0.99256       0.205528       0.112123       0.265532
  312.349       0.62451        1.01033       0.207364       0.0620335  -0.533435
  312.468       0.623279        1.01086       0.209199      -0.0149947  -0.219648
  312.587       0.620937        1.01027       0.211035       0.00969141   0.0459475
  312.707       0.62559        1.01668       0.212871      -0.0040408  -0.49956
  312.826       0.619974        1.01282       0.214706      -0.109354      -0.607901
  312.945       0.599531       0.994137       0.216543      -0.148904       0.253419
  313.064       0.584476       0.980839       0.218379      -0.0489386   0.713085
  313.183       0.587869       0.985988       0.220214       0.0210244   0.209399
  313.303       0.589486       0.989363       0.22205       0.00096124  -0.200797
  313.422       0.588098       0.989732       0.223887      -0.0268455  -0.236248
  313.541       0.583086       0.986478       0.225723      -0.0553604   0.0925347
  313.66       0.574905       0.980054       0.227558      -0.00479451   0.422932
  313.779       0.581943       0.988849       0.229394       0.0454244  -0.118974
  313.898       0.585734       0.994398       0.23123      -0.0331579  -0.676303
  314.017       0.574042       0.984461       0.233065      -0.115739      -0.273102
  314.137       0.558154       0.970331       0.234902      -0.0982381   0.3676
  314.256       0.550622       0.964556       0.236738      -0.0281026   0.417694
  314.375       0.551454       0.967146       0.238574       0.00134012   0.292552
  314.494       0.550941       0.968389       0.240409       0.0416126   0.466352
  314.613       0.561371       0.980576       0.242246       0.112472       0.178596
  314.733       0.577754       0.998718       0.244082       0.08419  -0.511751
  314.852       0.581433        1.00415       0.245917      -0.00947839  -0.581705
  314.971       0.575496       0.999972       0.247753      -0.0544303  -0.133537
  315.09       0.568457       0.994691       0.249589      -0.0413136   0.180031
  315.209       0.565647       0.993638       0.251426      -0.011511  -0.00309475
  315.328       0.565714       0.995462       0.253261      -0.042051  -0.34368
  315.448       0.555626       0.987131       0.255097      -0.0934099   0.0513566
  315.567       0.543445       0.976708       0.256933      -0.0298076   0.652651
  315.686       0.548523       0.983542       0.258768       0.0621168   0.347559
  315.805       0.558247       0.995024       0.260605       0.0530157  -0.274936
  315.924       0.561162       0.999696       0.262441      -0.00342798  -0.569388
  316.043       0.55743       0.997722       0.264277      -0.0827263  -0.425251
  316.163       0.541448       0.983496       0.266112      -0.104765       0.352524
  316.282       0.532465       0.97627       0.267948       0.00128016   0.731255
  316.401       0.541753       0.987316       0.269785       0.0695661  -0.0137706
  316.52       0.549042       0.996361       0.27162      -0.00200137  -0.667103
  316.639       0.541276       0.990352       0.273456      -0.0894046  -0.144308
  316.759       0.527728       0.978562       0.275292      -0.0364043   0.518904
  316.878       0.532597       0.985189       0.277129       0.0343022  -0.0305768
  316.997       0.535902       0.99025       0.278964      -0.0436908  -0.370396
  317.116       0.522186       0.978291       0.2808      -0.0539631   0.490507
  317.235       0.523038       0.9809       0.282636       0.073246   0.651969
  317.354       0.53964       0.999259       0.284471       0.101401      -0.239793
  317.474       0.547201        1.00858       0.286307       0.0161032  -0.650002
  317.593       0.543479        1.00661       0.288144      -0.0535594  -0.441959
  317.712       0.534433       0.999324       0.28998      -0.0892598  -0.0534428
  317.831       0.522209       0.988856       0.291815      -0.0662949   0.340039
  317.95       0.518635       0.987039       0.293651      -0.00822849   0.263923
  318.069       0.520247       0.990409       0.295488      -0.0033757  -0.008534
  318.188       0.51783       0.989749       0.297323      -0.0102621   0.0301533
  318.308       0.517802       0.991478       0.299159       0.00380984  -0.0171275
  318.427       0.518739       0.994172       0.300995      -0.0143453  -0.0288231
  318.546       0.514382       0.991573       0.302832      -0.00306159   0.233701
  318.665       0.518009       0.996956       0.304666       0.0413457  -0.00382015
  318.784       0.524234        1.00494       0.306503      -0.00397193  -0.518914
  318.904       0.517062       0.999524       0.308339      -0.0823635  -0.257545
  319.023       0.504607       0.988825       0.310174      -0.0653449   0.511458
  319.142       0.50149       0.987466       0.31201       0.039517   0.525676
  319.261       0.514028        1.00176       0.313847       0.0599762  -0.389366
  319.38       0.515783        1.00527       0.315682      -0.0532688  -0.513653
  319.499       0.501334       0.992581       0.317518      -0.0624272   0.418401
  319.619       0.5009       0.993904       0.319354       0.0464781   0.610467
  319.738       0.512414        1.00718       0.321191       0.0831081  -0.0839218
  319.857       0.520705        1.01722       0.323025       0.0264795  -0.630984
  319.976       0.518725        1.017       0.324862      -0.0672555  -0.5598
  320.095       0.504671        1.0047       0.326698      -0.106977       0.0580774
  320.214       0.493232       0.995021       0.328533      -0.0534156   0.510678
  320.334       0.491942       0.995489       0.330369       0.0147177   0.339714
  320.453       0.496741        1.00204       0.332206       0.0275722  -0.0197309
  320.572       0.498515        1.00558       0.334042       0.0100139   0.0349841
  320.691       0.499127        1.00794       0.335877       0.0359089   0.182536
  320.81       0.507072        1.01765       0.337713       0.0535122  -0.0646982
  320.93       0.511884        1.02422       0.33955       0.0204848  -0.280765
  321.049       0.511954        1.02604       0.341385      -0.0133941  -0.27361
  321.168       0.508692        1.02454       0.343221      -0.0447164  -0.2139
  321.287       0.501294        1.0189       0.345057      -0.0643879  -0.0530731
  321.406       0.493342        1.0127       0.346894      -0.057369   0.227206
  321.525       0.487623        1.00874       0.348728      -0.0102446   0.26651
  321.644       0.490901        1.01378       0.350565       0.00614035  -0.16195
  321.764       0.489086        1.01372       0.352401      -0.0488534  -0.324065
  321.883       0.479259        1.00565       0.354236      -0.0710845  -0.0764772
  322.002       0.472147        1.00029       0.356072      -0.067078   0.153439
  322.121       0.463268       0.993172       0.357909      -0.0345045   0.422206
  322.24       0.463921       0.995582       0.359745       0.0335759   0.257831
  322.36       0.471269        1.00469       0.36158       0.0269366  -0.222972
  322.479       0.47034        1.00551       0.363416      -0.0195583  -0.242063
  322.598       0.466606        1.00354       0.365253      -0.0307713   0.0904379
  322.717       0.463007        1.0017       0.367087       0.00199306   0.353627
  322.836       0.467081        1.00753       0.368924       0.0534981   0.132277
  322.955       0.475761        1.01796       0.37076       0.0335278  -0.345615
  323.075       0.475074        1.01904       0.372597      -0.0288965  -0.467219
  323.194       0.468875        1.01459       0.374431      -0.0778104  -0.274598
  323.313       0.456532        1.00401       0.376268      -0.0943332   0.191971
  323.432       0.446386       0.995618       0.378104      -0.0320444   0.487625
  323.551       0.448896       0.999884       0.379939       0.0218679   0.140822
  323.67       0.451597        1.00434       0.381775       0.00151355  -0.183656
  323.79       0.449257        1.00376       0.383612      -0.0219158   0.0700529
  323.909       0.446373        1.00263       0.385448       0.0182142   0.343094
  324.028       0.453597        1.01161       0.387283       0.0598435  -0.144413
  324.147       0.460633        1.02041       0.389119      -0.0161996  -0.529498
  324.266       0.449735        1.01127       0.390956      -0.0663888   0.148454
  324.385       0.444813        1.0081       0.39279       0.019177   0.425103
  324.505       0.454305        1.01935       0.394627       0.0349134  -0.205578
  324.624       0.453136        1.01994       0.396463      -0.0298329  -0.0998231
  324.743       0.447193        1.01575       0.398299       0.0111155   0.487407
  324.862       0.455785        1.0261       0.400134       0.0863161   0.375003
  324.981       0.467762        1.03984       0.401971       0.100479       0.118814