File: E2/Imdz_Solution_35C_APS.txt
# XDI/1.0 Athena/0.9.24
# Element.edge:                  K
# Element.symbol:                N
# Column.1:                      energy eV
# Column.2:                      norm
# Column.3:                      nbkg
# Column.4:                      flat
# Column.5:                      fbkg
# Column.6:                      nder
# Column.7:                      nsec
# Athena.e0:                     400
# Athena.eshift:                 0
# Athena.rbkg:                   1.0
# Athena.importance:             1
# Athena.standard:               None
# Athena.bkg_kweight:            2
# Athena.edge_step:              0.0002820
# Athena.fixed_step:             no
# Athena.pre_edge_range:         -20.206 -1.606
# Athena.pre_edge_line:          0.002421 - 4.14502e-006 * E
# Athena.normalization_range:    19.827 50.632
# Athena.post_edge_polynomial:   0.003208 - 5.40903e-006 * E + 0 * E^2 + 0 * E^3
# Athena.spline_range_energy:    0.000 185.624
# Athena.clamps:                 0 24
# Athena.spline_range_k:         0.000 6.980
# Athena.kweight:                2
# Athena.window:                 hanning
# Athena.phase_correction:       no
# Athena.k_range:                3.000 4.980
# Athena.dk:                     1
# Athena.r_range:                1 3
# Athena.dr:                     0.0
# Athena.window:                 hanning
# Athena.plot_multiplier:        1
# Athena.y_offset:               0
# ///
#------------------------
#   e         norm        nbkg        flat        fbkg        nder        nsec
  379.774       0.0460823   0.0460786   0.0460786   0.0460786  -0.046478   0.0227685
  381.755      -0.0459885  -0.0459848  -0.0459848  -0.0459848  -0.0013745   0.0113082
  383.801       0.0405471   0.0405439   0.0405439   0.0405439  -0.00093919  -0.00327517
  385.85      -0.0498351  -0.0498311  -0.0498311  -0.0498311  -0.0147883   0.00473674
  387.837      -0.0191433  -0.0191417  -0.0191417  -0.0191417   0.0181799   0.00696721
  389.751       0.0210842   0.0210825   0.0210825   0.0210825   0.0123906  -0.0104656
  391.762       0.0294947   0.0294924   0.0294924   0.0294924  -0.0229015  -0.00205563
  393.779      -0.0711593  -0.0711536  -0.0711536  -0.0711536   0.00411087   0.00969366
  396.839       0.0503654   0.0503614   0.0503614   0.0503614   0.0263127  -0.0707156
  396.998       0.0135425   0.0135414   0.0135414   0.0135414  -0.223526      -0.705641
  397.082      -0.00385705  -0.00385674  -0.00385675  -0.00385674  -0.14486        2.2741
  397.19      -0.0142271  -0.0142259  -0.0142259  -0.0142259   0.212417       0.405148
  397.278       0.0378173   0.0378142   0.0378142   0.0378142  -0.0653738  -0.32923
  397.386      -0.0270592  -0.0270571  -0.0270571  -0.0270571   0.147792       0.636381
  397.487       0.0686603   0.0686548   0.0686548   0.0686548   0.0674334   -3.45035
  397.58      -0.013994  -0.0139929  -0.0139929  -0.0139929  -0.520714       -1.00051
  397.685      -0.0346688  -0.0346661  -0.0346661  -0.0346661  -0.131105        4.56514
  397.775      -0.0395749  -0.0395717  -0.0395718  -0.0395717   0.370023        1.02619
  397.879       0.0370955   0.0370925   0.0370925   0.0370925   0.067919   -3.65903
  397.957      -0.0271784  -0.0271762  -0.0271762  -0.0271762  -0.297821       0.359231
  398.06      -0.0166229  -0.0166216  -0.0166216  -0.0166216   0.132714        3.40462
  398.142      -0.00263149  -0.00263128  -0.00263128  -0.00263128   0.3319       -2.91372
  398.237       0.0421403   0.0421369   0.0421369   0.0421369  -0.383162       -1.54826
  398.324      -0.0721545  -0.0721487  -0.0721487  -0.0721487   0.0509752    5.60941
  398.416       0.051265   0.0512609   0.0512609   0.0512609   0.620945       0.323351
  398.502       0.0384513   0.0384482   0.0384482   0.0384482   0.108572       -2.48001
  398.597       0.0709861   0.0709804   0.0709804   0.0709804   0.170475       -1.32984
  398.677       0.0682344   0.068229   0.068229   0.068229  -0.123761      -0.68765
  398.799       0.0460043   0.0460006   0.0460006   0.0460006   0.0316685  -0.960547
  398.894       0.075131   0.075125   0.075125   0.075125  -0.332942        1.58954
  399.007      -0.0230553  -0.0230534  -0.0230534  -0.0230534   0.361375        14.0078
  399.015       0.118538       0.118529       0.118529       0.118529        1.34963        1.02426
  399.121       0.131678       0.131667       0.131667       0.131667       0.478805       -1.33413
  399.245       0.228841       0.228823       0.228823       0.228823        1.04229        5.65644
  399.349       0.369246       0.369216       0.369216       0.369216        1.76808        5.39062
  399.464       0.61578       0.615731       0.615731       0.615731        2.22201        2.15868
  399.563       0.84381       0.843742       0.843742       0.843742        2.22911        3.21373
  399.668        1.0714        1.07131        1.07131        1.07131        2.87888      -0.285929
  399.761        1.41481        1.41469        1.41469        1.41469        2.1724       -10.6421
  399.869        1.50758        1.50746        1.50746        1.50746       0.742144       -10.6205
  399.956        1.55968        1.55956        1.55944        1.55944       0.0991226   -7.97018
  400.047        1.52522      -0.64891        1.52539      -0.64862      -0.676767       -10.2312
  400.131        1.44145      -0.595926        1.442      -0.595259       -1.68834       -6.30554
  400.219        1.23405      -0.541012        1.23502      -0.539948       -1.76423       -1.24579
  400.299        1.14546      -0.492578        1.14678      -0.491159       -1.89735        1.69353
  400.395       0.900347      -0.434579       0.902127      -0.432726       -1.46637        5.47544
  400.478       0.882255      -0.385652       0.884408      -0.383428      -0.914552       -1.34563
  400.581       0.730119      -0.325842       0.732746      -0.323156       -1.71684        1.61079
  400.678       0.539559      -0.27109       0.542634      -0.267971      -0.593022        11.6326
  400.791       0.605665      -0.207974       0.609243      -0.204346       0.724428        5.04052
  400.895       0.696613      -0.151759       0.700647      -0.147669       0.499746       0.966246
  401.016       0.71801      -0.0871723   0.722587      -0.0825376   0.941645        4.16007
  401.129       0.917771      -0.0283531   0.92284      -0.0232101    1.47679        2.03041
  401.249        1.06168       0.0320529    1.06727       0.0377308    1.41415      -0.600963
  401.353        1.23388       0.0835492    1.23993       0.0896941    1.34246      -0.217125
  401.468        1.35548       0.13888        1.36203       0.145539        1.36663       -4.29635
  401.564        1.52242       0.184376        1.52939       0.191468       0.435355       -8.29435
  401.676        1.44633       0.236071        1.45381       0.243665      -0.364325       -6.99799
  401.766        1.44885       0.276487        1.45673       0.284483      -0.97791       -5.59969
  401.876        1.25065       0.325058        1.25904       0.33355       -1.48481       0.697645
  401.965        1.15363       0.363116        1.16242       0.372004      -0.839198       0.392591
  402.066        1.09175       0.405556        1.101       0.414896       -1.41047       -4.63525
  402.163       0.874976       0.445287       0.884679       0.45506       -1.75493       0.210881
  402.264       0.743159       0.486196       0.75333       0.496426       -1.36858        3.80146
  402.354       0.612753       0.521337       0.623336       0.531969       -1.02657        4.4548
  402.449       0.553284       0.557855       0.564299       0.568914      -0.544618        4.97785
  402.543       0.510053       0.592754       0.521489       0.604231      -0.0878705    2.46313
  402.64       0.536517       0.628387       0.548389       0.640302      -0.0746028   -1.07595
  402.725       0.496421       0.658769       0.508678       0.671065      -0.284463       -1.85213
  402.827       0.483291       0.694266       0.496006       0.70702      -0.421154      -0.417471
  402.916       0.41618       0.724339       0.429297       0.737489      -0.364003        4.69783
  403.016       0.41465       0.757442       0.428215       0.771041       0.464735        5.22071
  403.102       0.502773       0.785304       0.516718       0.79929       0.608762       -1.15726
  403.209       0.53236       0.818938       0.546782       0.833403       0.240967       -2.56514
  403.305       0.551532       0.84805       0.56638       0.862942       0.0897226   0.422895
  403.436       0.552705       0.886918       0.568142       0.9024       0.336862       0.177474
  403.568       0.640254       0.924461       0.656276       0.940534       0.136465       -1.20559
  403.669       0.584489       0.952215       0.600968       0.96874       0.0560682  -0.83029
  403.802       0.653357       0.987418       0.670425        1.00454      -0.0575662  -0.768355
  403.903       0.571025        1.0133       0.588553        1.03087      -0.12364        3.60823
  404.011       0.627506        1.04       0.645513        1.05805       0.696851        4.95976
  404.113       0.717404        1.06443       0.735862        1.08294       0.918201       -2.30385
  404.221       0.820382        1.08936       0.839315        1.10835       0.212907       -5.23755
  404.316       0.760714        1.11068       0.78008        1.1301      -0.14721       0.80256
  404.422       0.790782        1.13344       0.810619        1.15334       0.374281        2.90269
  404.508       0.832499        1.15141       0.85272        1.1717       0.409518      -0.450281
  404.608       0.867047        1.17158       0.887712        1.19231       0.290425       -1.69511
  404.687       0.884572        1.18705       0.905591        1.20814       0.105591        1.35101
  404.779       0.885133        1.20443       0.906565        1.22593       0.521837        1.34836
  404.86       0.974772        1.21921       0.996559        1.24108       0.338657       -1.92604
  404.957       0.945225        1.23627       0.967447        1.25857       0.180078        3.11099
  405.042        1.0075        1.25078        1.0301        1.27346       0.904042        2.1398
  405.146        1.11668        1.26791        1.13973        1.29106       0.585889       -4.34591
  405.235        1.12056        1.28184        1.14401        1.30538       0.065418   -1.63923
  405.349        1.1299        1.29897        1.15386        1.32303       0.254522       0.994785
  405.438        1.17233        1.31191        1.19669        1.33636       0.267775        1.00948
  405.55        1.18372        1.32722        1.20858        1.35218       0.457404      -0.903958
  405.657        1.27212        1.34121        1.29745        1.36665       0.0705641   -2.96782
  405.77        1.19927        1.35529        1.22512        1.38123      -0.196734        1.66867
  405.875        1.22922        1.36757        1.25553        1.39398       0.434444        4.07494
  405.988        1.29401        1.38015        1.32082        1.40707       0.691874      -0.0799605
  406.086        1.37536        1.39039        1.40261        1.41775       0.417554       -2.4201
  406.199        1.38225        1.4016        1.41        1.42946       0.180439       -2.97246
  406.296        1.41327        1.41055        1.44145        1.43885      -0.206837       -2.06559
  406.401        1.34062        1.41968        1.36928        1.44845      -0.235302        2.56618
  406.495        1.36641        1.4274        1.3955        1.45659       0.304143        3.29359
  406.598        1.40073        1.43531        1.43028        1.46496       0.415697        1.50157
  406.682        1.44432        1.44133        1.47423        1.47137       0.585541      -0.92798
  406.787        1.51109        1.44831        1.54147        1.47881       0.240795       -5.31976
  406.872        1.49001        1.45361        1.52077        1.48449      -0.423863       -2.06683
  406.977        1.43063        1.4596        1.46186        1.49095      -0.151581        5.22786
  407.064        1.4609        1.46421        1.49253        1.49596       0.579844       0.764865
  407.159        1.53606        1.46878        1.56811        1.50095      -0.0125007   -4.35139
  407.238        1.45873        1.47232        1.49114        1.50484      -0.176974       -5.61783
  407.332        1.5053        1.47613        1.53812        1.50907      -0.989038       -2.69648
  407.42        1.27908        1.47931        1.31232        1.51264      -0.666765        11.5502
  407.508        1.3879        1.48219        1.42152        1.51592        1.04465        6.79304
  407.595        1.4622        1.48468        1.49621        1.51881       0.524006       -7.9406
  407.69        1.48323        1.48706        1.51767        1.52161      -0.400012       -5.3016
  407.779        1.3886        1.48894        1.42344        1.52389      -0.451407        2.39128
  407.902        1.38779        1.49102        1.42318        1.52652       0.105567        1.67442
  408        1.41199        1.49228        1.44781        1.52822      -0.0805489   -1.9238
  408.123        1.36996        1.49332        1.40634        1.52981      -0.320337      -0.938898
  408.23        1.33844        1.49378        1.3753        1.53075      -0.29611       0.438324
  408.352        1.30227        1.49381        1.33968        1.53133      -0.22013       0.607126
  408.447        1.29065        1.49348        1.32849        1.53142      -0.16431        3.20466
  408.556        1.26865        1.49273        1.30698        1.53117       0.435511        2.13496
  408.654        1.38073        1.49174        1.41949        1.53061       0.277276       -1.60176
  408.763        1.32598        1.49028        1.36523        1.52964       0.104366       -3.18638
  408.856        1.40185        1.48875        1.44151        1.52853      -0.367468       -3.76597
  408.959        1.2541        1.48678        1.29423        1.52702      -0.632278        2.46211
  409.045        1.28256        1.4849        1.32308        1.52552       0.0970629    4.35865
  409.142        1.27185        1.48254        1.3128        1.5236       0.164962       0.55486
  409.22        1.31144        1.48045        1.35274        1.52186       0.194218       0.2822
  409.316        1.30567        1.4777        1.3474        1.51953       0.214099       0.794964
  409.391        1.34795        1.47538        1.39001        1.51756       0.329765       -2.66718
  409.488        1.3626        1.47217        1.4051        1.51478      -0.246405       -3.02928
  409.578        1.30172        1.46902        1.34463        1.51203      -0.23852        1.01856
  409.683        1.31623        1.46514        1.3596        1.50862      -0.0483635    1.05145
  409.782        1.29188        1.46126        1.3357        1.50518      -0.0245338    1.56278
  409.894        1.31104        1.45662        1.35536        1.50105       0.282049       0.526882
  409.993        1.35154        1.45234        1.3963        1.49721       0.0869142   -1.28932
  410.116        1.33032        1.4468        1.37564        1.49222      -0.00401813  -0.623209
  410.224        1.35061        1.44172        1.39641        1.48763      -0.0570203    1.47731
  410.342        1.31743        1.43598        1.36376        1.48242       0.329963        2.46556
  410.446        1.42372        1.43078        1.47051        1.47768       0.489303       -3.33406
  410.558        1.42327        1.42497        1.47057        1.47238      -0.391222       -4.95928
  410.661        1.33971        1.41959        1.38747        1.46745      -0.575683        2.63722
  410.773        1.29959        1.41351        1.34786        1.46188       0.175368        5.89122
  410.869        1.37624        1.40827        1.42493        1.45706       0.651464       0.695706
  410.976        1.43148        1.40231        1.48064        1.45158       0.316207       -3.33562
  411.067        1.4388        1.39718        1.48837        1.44686      -0.00849385  -0.880917
  411.171        1.42982        1.39122        1.47985        1.44137       0.144067       -1.00464
  411.258        1.46632        1.38624        1.51674        1.43678      -0.200395       -1.78503
  411.348        1.39447        1.38103        1.4453        1.43198      -0.170753        3.95183
  411.449        1.43369        1.37514        1.48497        1.42653       0.554852        1.8503
  411.535        1.49862        1.37008        1.55028        1.42187       0.176539       -4.62988
  411.64        1.46741        1.36395        1.51955        1.41621      -0.329527      -0.380323
  411.723        1.43673        1.35907        1.48924        1.4117       0.105117        4.29891
  411.822        1.48654        1.35328        1.53949        1.40635       0.453009       0.0463761
  411.909        1.52119        1.34816        1.57453        1.40162       0.113763       -3.52012
  412.012        1.50814        1.34221        1.56194        1.39613      -0.215264       0.318821
  412.1        1.48028        1.33712        1.53447        1.39144       0.174351        2.58493
  412.196        1.54032        1.33155        1.59495        1.3863       0.261837       -1.94838
  412.292        1.5306        1.3261        1.58565        1.38128      -0.200104       -2.64582
  412.412        1.4971        1.31927        1.55269        1.37499      -0.309702        1.88383
  412.525        1.45838        1.31295        1.51448        1.36917       0.239211       0.873005
  412.651        1.55424        1.30593        1.6109        1.36271      -0.10117       -2.58799
  412.753        1.43527        1.30029        1.4924        1.35754      -0.351933       0.0710575
  412.885        1.47182        1.29308        1.52954        1.35091      -0.0845294  -0.191797
  412.984        1.41574        1.28772        1.4739        1.346      -0.396249       0.553961
  413.098        1.38738        1.28159        1.44606        1.34038       0.033512    1.77213
  413.198        1.42291        1.27627        1.48203        1.33551      -0.0170758    1.83969
  413.309        1.3838        1.27044        1.44342        1.33018       0.420135      -0.885526
  413.401        1.508        1.26561        1.56803        1.32575      -0.19643       -6.02307
  413.509        1.34443        1.25999        1.40496        1.32062      -0.786831        4.28713
  413.594        1.3557        1.25558        1.41661        1.31659       0.633364        3.5928
  413.693        1.46102        1.25053        1.52236        1.31198      -0.125461       -8.18221
  413.772        1.33345        1.24652        1.39516        1.30833      -0.817698      -0.437189
  413.865        1.3204        1.24181        1.38252        1.30404      -0.200645        4.74119
  413.946        1.2985        1.23775        1.36098        1.30035       0.00830677    5.11643
  414.04        1.32186        1.23306        1.38477        1.29607       0.696228        1.2229
  414.127        1.42435        1.22879        1.48764        1.29219       0.22936       -8.71603
  414.229        1.36518        1.22376        1.42893        1.28762      -0.949943       -2.31691
  414.319        1.24169        1.21939        1.30585        1.28365      -0.216147        5.66465
  414.433        1.3211        1.21388        1.38577        1.27866       0.205114       0.739101
  414.523        1.28349        1.20959        1.34857        1.27476      -0.065512   -1.91563
  414.633        1.30799        1.20435        1.37355        1.27002      -0.178386      -0.876335
  414.742        1.24447        1.19925        1.31053        1.26541      -0.25721        2.96339
  414.853        1.25152        1.19407        1.31808        1.26072       0.472171       0.675313
  414.959        1.34707        1.18917        1.41409        1.2563      -0.110475       -3.02659
  415.073        1.22724        1.18396        1.29478        1.25161      -0.193146       0.137009
  415.174        1.30553        1.17937        1.37352        1.24747      -0.0810124    1.0732
  415.285        1.21        1.17436        1.2785        1.24296       0.0352227    2.09105
  415.382        1.31287        1.17005        1.3818        1.23908       0.354759       -1.11827
  415.491        1.28306        1.16523        1.35248        1.23475      -0.195092       -1.44731
  415.58        1.27426        1.16134        1.34407        1.23126       0.0682644  -0.730673
  415.683        1.29613        1.15689        1.3664        1.22727      -0.334948       0.168612
  415.771        1.21021        1.15307        1.28089        1.22385       0.100505       0.790614
  415.874        1.31534        1.1487        1.38646        1.21993      -0.183851       -5.61597
  415.961        1.17545        1.14503        1.24698        1.21665      -0.961265      -0.689192
  416.065        1.13135        1.14063        1.20335        1.21272      -0.315766        2.50573
  416.153        1.1147        1.13698        1.1871        1.20947      -0.479207        2.24161
  416.251        1.04252        1.13295        1.11536        1.20587       0.0997193    3.24975
  416.332        1.13251        1.12963        1.20571        1.20292       0.101241      -0.609773
  416.426        1.06028        1.12579        1.1339        1.1995      -0.00722914  -0.101143
  416.514        1.1312        1.12225        1.20521        1.19635       0.0827904  -0.229782
  416.605        1.07509        1.11861        1.14952        1.19312      -0.0483386   0.757859
  416.69        1.12267        1.11522        1.19747        1.19011       0.216452        2.89888
  416.786        1.11424        1.11146        1.18947        1.18678       0.475952       -1.4509
  416.876        1.21093        1.10795        1.28656        1.18367      -0.0526161   -3.64505
  416.999        1.10304        1.1032        1.17922        1.17947      -0.300046       0.586599
  417.099        1.14395        1.09936        1.22058        1.17609       0.0783375   0.924095
  417.224        1.12071        1.09462        1.19791        1.1719      -0.0915831   -1.63732
  417.334        1.12248        1.09053        1.20016        1.1683      -0.305568      -0.728346
  417.457        1.04975        1.08597        1.12799        1.1643      -0.260724        1.69656
  417.549        1.06631        1.08258        1.14497        1.16132       0.0599212   -1.28764
  417.647        1.06115        1.07902        1.14025        1.1582      -0.505803      -0.739403
  417.755       0.962038        1.07513        1.04162        1.15479      -0.0925084    5.27737
  417.853        1.04207        1.07163        1.12209        1.15173       0.582654       0.68486
  417.956        1.07937        1.06798        1.15985        1.14855       0.0453998   -4.09883
  418.048        1.05091        1.06479        1.1318        1.14577      -0.214696       -1.57205
  418.148        1.03827        1.06132        1.11961        1.14274      -0.2555      -0.650496
  418.232        1.00377        1.05842        1.0855        1.14023      -0.334695      -0.866059
  418.325       0.978817        1.05524        1.06096        1.13746      -0.409344        4.31878
  418.405       0.932898        1.05255        1.0154        1.13513       0.413079        4.03645
  418.495        1.04897        1.04953        1.13187        1.13252       0.276143       -1.31286
  418.577       0.980387        1.04681        1.06366        1.13016       0.187303        1.99562
  418.678        1.0831        1.04351        1.16681        1.12731       0.639797       -2.1638
  418.766        1.10141        1.04061        1.18552        1.12481      -0.222001       -3.84226
  418.884        1.03731        1.03682        1.12195        1.12155      -0.152668       -1.12373
  418.977        1.06921        1.03384        1.15426        1.11898      -0.459038      -0.600122
  419.089       0.943173        1.03031        1.02874        1.11595      -0.27574        1.85655
  419.2        1.00776        1.02683        1.09382        1.11297      -0.0453028   0.310569
  419.322       0.932613        1.02307        1.01923        1.10976      -0.203345       0.149356
  419.429       0.961191        1.01979        1.04828        1.10696      -0.0110996    1.84286
  419.547       0.93012        1.01625        1.01774        1.10394       0.210579        2.14328
  419.647        1.00703        1.01326        1.09509        1.1014       0.455441       -2.6264
  419.76        1.02712        1.00993        1.11569        1.09858      -0.348814       -2.54178
  419.861       0.932361        1.00697        1.02139        1.09607      -0.0886578   0.257434
  421.165       0.902535       0.971627       0.99741        1.06657       0.0129506   0.0244942
  422.73       0.969515       0.935499        1.0714        1.03746      -0.0183875  -0.0118088
  424.235       0.846087       0.906659       0.954727        1.01537      -0.0233015   0.00635766
  425.712       0.900029       0.883415        1.01529       0.998744       0.000571226   0.00257035
  427.362       0.847873       0.862702       0.97053       0.985427      -0.0152639   0.00502831
  429.053       0.849028       0.846453       0.979265       0.976758       0.0173724   0.00126981
  430.726       0.906312       0.834546        1.04404       0.972348      -0.0109924  -0.0117465
  432.48       0.811357       0.825633       0.956958       0.9713      -0.0228822   0.000145065
  434.32       0.824076       0.819237       0.977922       0.973148      -0.0104711   0.00790938
  436.193       0.77248       0.814749       0.934726       0.977057       0.0064837   0.00881791
  438.095       0.848553       0.811143        1.01932       0.981976       0.0228174  -0.00404857
  440.036       0.860162       0.807245        1.03963       0.986777      -0.00907404  -0.0123825
  442.03       0.81284       0.801711        1.00125       0.990185      -0.0259168   0.00106397
  444.056       0.755979       0.793137       0.953469       0.990688      -0.00479697   0.0132601
  446.125       0.793196       0.779836       0.999961       0.986665       0.0283836  -0.00155194
  448.312       0.876781       0.759151        1.09334       0.975779      -0.0114021  -0.0199981
  450.545       0.742807       0.729172       0.969385       0.95581      -0.0599946  -0.0217601