File: E2/N1s_Imidazole_ISEELS.txt
# XDI/1.0 Athena/0.9.24
# Element.edge:                  L3
# Element.symbol:                Sc
# Column.1:                      energy eV
# Column.2:                      norm
# Column.3:                      nbkg
# Column.4:                      flat
# Column.5:                      fbkg
# Column.6:                      nder
# Column.7:                      nsec
# Athena.e0:                     399.5223
# Athena.eshift:                 0
# Athena.rbkg:                   1.0
# Athena.importance:             1
# Athena.standard:               None
# Athena.bkg_kweight:            2
# Athena.edge_step:              5574.9
# Athena.fixed_step:             no
# Athena.pre_edge_range:         -6.740 -1.366
# Athena.pre_edge_line:          33532.3 - 63.2795 * E
# Athena.normalization_range:    21.585 36.452
# Athena.post_edge_polynomial:   65362.7 - 128.997 * E + 0 * E^2 + 0 * E^3
# Athena.spline_range_energy:    0.000 36.520
# Athena.clamps:                 0 24
# Athena.spline_range_k:         0.000 3.096
# Athena.kweight:                2
# Athena.window:                 hanning
# Athena.phase_correction:       no
# Athena.k_range:                1.096 3.000
# Athena.dk:                     1
# Athena.r_range:                1 3
# Athena.dr:                     0.0
# Athena.window:                 hanning
# Athena.plot_multiplier:        1
# Athena.y_offset:               0
# ///
#------------------------
#   e         norm        flat        fbkg        nder        nsec
  392.782       0.0209576   0.0209576   -1.55642      -0.210089       0.385534
  392.894      -0.00263536  -0.00263536   -1.55515      -0.166794       0.99535
  393.007      -0.0165209  -0.0165209   -1.55387       0.013566    1.32485
  393.119       0.000412925   0.000412925   -1.5526       0.1309       0.129574
  393.231       0.0128792   0.0128792   -1.55132       0.0426684  -0.894387
  393.344       0.0100005   0.0100005   -1.55005      -0.070069  -0.773239
  393.456      -0.00286531  -0.00286531   -1.54877      -0.131078       0.422076
  393.568      -0.0194397  -0.0194397   -1.5475       0.0247293   0.749529
  393.681       0.00269137   0.00269137   -1.54622       0.0373406  -0.33915
  393.793      -0.0110493  -0.0110493   -1.54495      -0.0514777   0.332551
  393.906      -0.00887053  -0.00887053   -1.54367       0.112032       0.319095
  394.018       0.0141242   0.0141242   -1.5424       0.0202229  -0.55165
  394.13      -0.00432643  -0.00432643   -1.54112      -0.0119241   0.148538
  394.243       0.0114449   0.0114449   -1.53985       0.0535994   0.345194
  394.355       0.00771735   0.00771735   -1.53857       0.065641  -0.827092
  394.467       0.0261879   0.0261879   -1.5373      -0.132165       -1.20455
  394.58      -0.0219802  -0.0219802   -1.53602      -0.205021        1.40125
  394.692      -0.0198804  -0.0198804   -1.53475       0.182697        1.57928
  394.804       0.0190534   0.0190534   -1.53347       0.149685       -1.69369
  394.917       0.0137539   0.0137539   -1.5322      -0.197877       -1.16916
  395.029      -0.0254094  -0.0254094   -1.53092      -0.113025        1.5901
  395.141      -0.0116316  -0.0116316   -1.52965       0.15926        1.2668
  395.254       0.0103763   0.0103763   -1.52837       0.171624       -1.0907
  395.366       0.0269323   0.0269323   -1.5271      -0.0858202   -1.33764
  395.478      -0.00889893  -0.00889893   -1.52582      -0.12881       0.678368
  395.591      -0.00201135  -0.00201135   -1.52454       0.0666091   0.513502
  395.703       0.00606813   0.00606813   -1.52327      -0.0134263  -0.582174
  395.815      -0.0050269  -0.0050269   -1.522      -0.0641473  -0.0809912
  395.928      -0.00834577  -0.00834577   -1.52072      -0.0316251   0.489052
  396.04      -0.0121331  -0.0121331   -1.51944       0.0457426   0.469398
  396.152       0.00193259   0.00193259   -1.51817       0.0738487  -0.739176
  396.265       0.00446076   0.00446076   -1.51689      -0.12035      -0.426995
  396.377      -0.0250981  -0.0250981   -1.51562      -0.0220544    1.00684
  396.489      -0.000494861  -0.000494861   -1.51434       0.105886       0.0804841
  396.602      -0.00130559  -0.00130559   -1.51307      -0.0039696  -0.212634
  396.714      -0.00138643  -0.00138643   -1.51179       0.0581281   0.240156
  396.826       0.0117558   0.0117558   -1.51052       0.0499935  -0.81902
  396.939       0.00984711   0.00984711   -1.50924      -0.125906      -0.410578
  397.051      -0.0165226  -0.0165226   -1.50797      -0.0422223   0.380381
  397.163       0.00035975   0.00035975   -1.50669      -0.0404342   0.400061
  397.276      -0.0256082  -0.0256082   -1.50542       0.0476715   0.15568
  397.388       0.0110668   0.0110668   -1.50414      -0.00546835  -0.15024
  397.5      -0.0268369  -0.0268369   -1.50287       0.0139125   0.910235
  397.613       0.0141929   0.0141929   -1.50159       0.199062      -0.313724
  397.725       0.0178723   0.0178723   -1.50032      -0.05655   -1.21767
  397.837       0.00148611   0.00148611   -1.49904      -0.0745482   0.0993259
  397.95       0.00112132   0.00112132   -1.49777      -0.0342315   0.859927
  398.062      -0.0062057  -0.0062057   -1.49649       0.118677       0.464079
  398.174       0.0277881   0.0277881   -1.49522       0.0700471  -0.322212
  398.287       0.00952688   0.00952688   -1.49394       0.0463086  -0.169448
  398.399       0.0381937   0.0381937   -1.49267       0.0319722  -0.220807
  398.511       0.016711   0.016711   -1.49139      -0.00330673   0.482015
  398.624       0.037451   0.037451   -1.49012       0.140233       0.744732
  398.736       0.0482213   0.0482213   -1.48884       0.164035        1.15915
  398.848       0.0743095   0.0743095   -1.48757       0.400694        2.0742
  398.961       0.138217       0.138217       -1.48629       0.629899        3.27071
  399.073       0.215848       0.215848       -1.48502        1.13562        4.95395
  399.185       0.393392       0.393392       -1.48374        1.74305        4.6078
  399.298       0.607338       0.607338       -1.48247        2.17054        5.2401
  399.41       0.881111       0.881111       -1.48119        2.9205        4.92473
  399.522        1.26357        1.26357       -1.47992        3.27712       -1.68593
  399.635        1.61715        1.61848       -1.47732        2.54184       -9.05029
  399.747        1.83473        1.83738       -1.47472        1.24352       -11.0647
  399.859        1.89657        1.90055       -1.47212       0.0556116   -10.9621
  399.972        1.84722        1.85251       -1.46952       -1.21857       -10.5293
  400.084        1.62276        1.62938       -1.46692       -2.31032       -5.92648
  400.196        1.32809        1.33603       -1.46432       -2.55025       0.191099
  400.309        1.04972        1.05899       -1.46172       -2.26738        2.69663
  400.421       0.818609       0.829203       -1.45912       -1.94432        5.03092
  400.533       0.613025       0.624942       -1.45652       -1.13743        6.92894
  400.646       0.563028       0.57627       -1.45392      -0.387386        4.59499
  400.758       0.525979       0.540545       -1.45132      -0.10494        3.24913
  400.87       0.539458       0.555349       -1.44873       0.342369        3.31492
  400.983       0.602909       0.620124       -1.44613       0.639923       0.790485
  401.095       0.683249       0.701788       -1.44353       0.519991       -1.98811
  401.207       0.719699       0.739562       -1.44093       0.193392       -1.77316
  401.32       0.726704       0.747892       -1.43833       0.121562       0.623992
  401.432       0.747014       0.769526       -1.43573       0.333603        3.04501
  401.544       0.801631       0.825467       -1.43313       0.805472        4.34181
  401.657       0.928004       0.953164       -1.43053        1.30921        3.63371
  401.769        1.09581        1.12229       -1.42793        1.62197        3.05969
  401.881        1.2923        1.32011       -1.42533        1.99641        1.53747
  401.994        1.5444        1.57354       -1.42273        1.96744       -3.11858
  402.106        1.73438        1.76484       -1.42013        1.29567       -6.24842
  402.218        1.83554        1.86732       -1.41753       0.563415       -7.13925
  402.331        1.86098        1.89409       -1.41493      -0.308522       -6.50885
  402.443        1.76625        1.80068       -1.41234      -0.898474       -4.64155
  402.555        1.65909        1.69485       -1.40973       -1.35148       -4.287
  402.668        1.46257        1.49965       -1.40714       -1.86176       -2.77016
  402.78        1.24094        1.27934       -1.40454       -1.97366       0.186957
  402.892        1.01909        1.05882       -1.40194       -1.81975        1.422
  403.005       0.832042       0.873092       -1.39934       -1.65413        2.15253
  403.117       0.647571       0.689946       -1.39674       -1.3363        2.42896
  403.229       0.531776       0.575476       -1.39414       -1.10834        2.62621
  403.342       0.398526       0.44355       -1.39154      -0.746186        4.36293
  403.454       0.364183       0.41053       -1.38894      -0.128429        3.85986
  403.566       0.369668       0.41734       -1.38634       0.121123       0.929234
  403.679       0.391399       0.440395       -1.38374       0.0803695   0.105526
  403.791       0.387719       0.438039       -1.38114       0.144825       0.514825
  403.903       0.423941       0.475586       -1.37854       0.196051        1.44175
  404.016       0.431772       0.48474       -1.37594       0.468786        1.46449
  404.128       0.529277       0.583571       -1.37334       0.525121       -1.05268
  404.24       0.549767       0.605384       -1.37075       0.232248      -0.419261
  404.353       0.58144       0.638381       -1.36815       0.430955        1.2781
  404.465       0.646602       0.704868       -1.36555       0.519437      -0.150296
  404.577       0.698158       0.757747       -1.36295       0.397183       -1.33253
  404.69       0.73581       0.796723       -1.36035       0.220151      -0.941302
  404.802       0.747626       0.809864       -1.35775       0.185673      -0.416573
  404.914       0.77753       0.841093       -1.35515       0.126547      -0.170925
  405.027       0.776048       0.840934       -1.35255       0.147283        1.35576
  405.139       0.810625       0.876836       -1.34995       0.431186        1.38793
  405.251       0.872936       0.94047       -1.34735       0.45915       -1.1604
  405.364       0.91375       0.982609       -1.34475       0.170561       -1.69911
  405.476       0.911261       0.981444       -1.34215       0.0773612   0.652168
  405.588       0.931133        1.00264       -1.33955       0.317103       0.972767
  405.701       0.982482        1.05531       -1.33696       0.295845      -0.193623
  405.813       0.997609        1.07177       -1.33436       0.273596      -0.0980541
  405.925        1.04396        1.11944       -1.33176       0.273812      -0.187901
  406.038        1.05913        1.13594       -1.32916       0.231375       0.0627552
  406.15        1.09595        1.17408       -1.32656       0.287913      -0.13332
  406.262        1.1238        1.20325       -1.32396       0.201431      -0.344874
  406.375        1.14121        1.22199       -1.32136       0.21042       0.23574
  406.487        1.17108        1.25318       -1.31876       0.254402       0.685049
  406.599        1.19835        1.28177       -1.31616       0.364282       0.831877
  406.712        1.25294        1.33769       -1.31356       0.441325      -0.880794
  406.824        1.29752        1.38359       -1.31096       0.166367       -2.60947
  406.936        1.2903        1.3777       -1.30836      -0.144762       -1.14502
  407.049        1.26499        1.35371       -1.30576      -0.0909179   0.510616
  407.161        1.26987        1.35992       -1.30316      -0.0300269   0.198541
  407.273        1.25824        1.34961       -1.30057      -0.0463255  -0.107209
  407.386        1.25946        1.35216       -1.29796      -0.0541168  -0.35387
  407.498        1.24608        1.3401       -1.29537      -0.12584      -0.808631
  407.61        1.2312        1.32654       -1.29277      -0.235735        1.13681
  407.723        1.19311        1.28978       -1.29017       0.129601        1.77583
  407.835        1.26032        1.35831       -1.28757       0.163293       -2.12154
  407.947        1.22979        1.3291       -1.28497      -0.346897      -0.955546
  408.06        1.18237        1.28301       -1.28237      -0.0514186    1.6931
  408.172        1.21823        1.3202       -1.27977       0.0335432  -0.482099
  408.284        1.18991        1.2932       -1.27717      -0.159746      -0.655718
  408.397        1.18234        1.28695       -1.27457      -0.113797       0.651319
  408.509        1.16435        1.27029       -1.27197      -0.01346    1.17608
  408.622        1.17932        1.28658       -1.26937       0.150468      -0.310763
  408.734        1.19816        1.30675       -1.26677      -0.0832885   -2.05113
  408.846        1.16061        1.27052       -1.26418      -0.310216       0.345935
  408.959        1.12846        1.23969       -1.26157      -0.00555696    1.33381
  409.071        1.15936        1.27192       -1.25898      -0.0105081  -0.526813
  409.183        1.1261        1.23998       -1.25638      -0.123879       0.541792
  409.296        1.13152        1.24673       -1.25378       0.111233       0.616326
  409.408        1.15109        1.26762       -1.25118       0.0146092   -1.12677
  409.52        1.13481        1.25266       -1.24858      -0.141841       0.0604957
  409.632        1.11922        1.2384       -1.24598       0.0282026    1.46285
  409.745        1.14114        1.26165       -1.24338       0.186861       0.0374264
  409.857        1.16119        1.28301       -1.24078       0.0366086  -0.510726
  409.969        1.14937        1.27252       -1.23818       0.0721005   0.431083
  410.082        1.17739        1.30186       -1.23558       0.133473       0.0481033
  410.194        1.17936        1.30516       -1.23298       0.0829093   0.605995
  410.307        1.19602        1.32314       -1.23038       0.26964       0.479008
  410.419        1.23992        1.36837       -1.22778       0.190495      -0.769632
  410.531        1.23882        1.3686       -1.22518       0.0967037  -0.234227
  410.644        1.26165        1.39275       -1.22259       0.137864      -0.149706
  410.756        1.26979        1.40221       -1.21999       0.0630798  -0.13646
  410.868        1.27582        1.40957       -1.21739       0.107201       0.245098
  410.981        1.29387        1.42894       -1.21479       0.118153      -0.457896
  411.093        1.30236        1.43876       -1.21219       0.00435777   -1.09621
  411.205        1.29485        1.43257       -1.20959      -0.128166       0.449707
  411.317        1.27356        1.41261       -1.20699       0.105407       0.432981
  411.43        1.31853        1.45889       -1.20439      -0.0309186   -1.66551
  411.542        1.26662        1.40831       -1.20179      -0.268832        1.05201
  411.654        1.25812        1.40114       -1.19919       0.205469       0.938397
  411.767        1.31276        1.4571       -1.19659      -0.0580683   -1.8
  411.879        1.24507        1.39074       -1.19399      -0.19899        1.17711
  411.991        1.26805        1.41504       -1.19139       0.206428       0.779672
  412.104        1.29146        1.43977       -1.18879      -0.0237978   -1.87929
  412.216        1.2627        1.41234       -1.1862      -0.215847       0.906658
  412.329        1.24298        1.39394       -1.1836       0.179837        1.10086
  412.441        1.30311        1.4554       -1.181       0.0315155   -2.63032
  412.553        1.25006        1.40367       -1.1784      -0.411195      -0.130832
  412.666        1.21076        1.36569       -1.1758       0.00213055    2.13163
  412.778        1.25054        1.4068       -1.1732       0.0677818  -0.221129
  412.89        1.22599        1.38357       -1.1706      -0.0475572  -0.951299
  413.002        1.23986        1.39876       -1.168      -0.14588      -0.745165
  413.115        1.19321        1.35344       -1.1654      -0.214996       0.812087
  413.227        1.19155        1.3531       -1.1628       0.0365959    1.412
  413.339        1.20143        1.36431       -1.1602       0.10214      -0.556827
  413.452        1.2145        1.3787       -1.1576      -0.088523   -1.49542
  413.564        1.18154        1.34706       -1.155      -0.233881       0.0493687
  413.676        1.16197        1.32882       -1.15241      -0.0774348    1.48366
  413.789        1.16414        1.33231       -1.1498       0.0994977   0.884552
  413.901        1.18433        1.35383       -1.14721       0.121324      -0.360545
  414.014        1.19139        1.36221       -1.14461       0.0185194   -1.28071
  414.126        1.18849        1.36064       -1.14201      -0.166452      -0.607473
  414.238        1.15399        1.32746       -1.13941      -0.11798        1.36682
  414.351        1.16198        1.33677       -1.13681       0.140673       0.65085
  414.463        1.1856        1.36172       -1.13421       0.028266  -0.989507
  414.575        1.16833        1.34577       -1.13161      -0.0815699  -0.713022
  414.688        1.16727        1.34604       -1.12901      -0.13195      -0.0089987
  414.8        1.13868        1.31877       -1.12641      -0.083592   0.295075
  414.912        1.14849        1.32991       -1.12381      -0.065676  -0.0572944
  415.025        1.12392        1.30666       -1.12121      -0.096466    1.19984
  415.137        1.12682        1.31088       -1.11861       0.203928       0.560579
  415.249        1.16972        1.35511       -1.11602       0.02944   -2.33819
  415.362        1.13343        1.32015       -1.11341      -0.321463      -0.693188
  415.474        1.09749        1.28553       -1.11082      -0.126319        1.40681
  415.586        1.10506        1.29442       -1.10822      -0.0054931   0.479849
  415.699        1.09625        1.28694       -1.10562      -0.0184972  -0.818829
  415.811        1.1009        1.29291       -1.10302      -0.189484      -0.528342
  415.923        1.0537        1.24703       -1.10042      -0.137163        1.53022
  416.036        1.07008        1.26474       -1.09782       0.154356       0.840281
  416.148        1.08838        1.28436       -1.09522       0.0516484   -1.21925
  416.26        1.08169        1.279       -1.09262      -0.119608      -0.700075
  416.373        1.0615        1.26014       -1.09002      -0.105658      -0.524396
  416.485        1.05796        1.25791       -1.08742      -0.237388      -0.0104974
  416.597        1.00816        1.20944       -1.08482      -0.108017        1.20277
  416.71        1.03369        1.23629       -1.08222       0.0328742  -0.21251
  416.822        1.01555        1.21948       -1.07962      -0.155747       0.0387171
  416.934       0.99869        1.20394       -1.07702       0.041574  -0.143532
  417.047        1.02489        1.23147       -1.07443      -0.187999       -1.89282
  417.159       0.956465        1.16437       -1.07183      -0.383554       0.477733
  417.271       0.938704        1.14793       -1.06923      -0.0806519    2.08923
  417.384       0.938343        1.14889       -1.06663       0.0858962   0.683023
  417.496       0.957996        1.16987       -1.06403       0.0727551  -0.604246
  417.608       0.954691        1.16789       -1.06143      -0.0498779   -1.20819
  417.721       0.946789        1.16131       -1.05883      -0.198724       0.175012
  417.833       0.910057        1.1259       -1.05623      -0.0105702    1.51524
  417.945       0.944414        1.16158       -1.05363       0.141751       -1.27641
  418.058       0.941909        1.1604       -1.05103      -0.297379       -1.26188
  418.17       0.877593        1.09741       -1.04843      -0.141793        2.28524
  418.282       0.910048        1.13119       -1.04583       0.216115       0.983714
  418.395       0.926132        1.1486       -1.04323       0.0791494   -1.15759
  418.507       0.927833        1.15163       -1.04063      -0.0439945   -1.3877
  418.619       0.916246        1.14136       -1.03804      -0.232667      -0.853663
  418.732       0.875576        1.10202       -1.03544      -0.235727       0.371135
  418.844       0.863278        1.09104       -1.03284      -0.149273        1.07364
  418.956       0.842034        1.07112       -1.03024       0.00552068   0.556029
  419.069       0.864518        1.09493       -1.02764      -0.0243886  -0.0610236
  419.181       0.836554        1.06829       -1.02504      -0.00819131   0.0811086
  419.293       0.862678        1.09574       -1.02244      -0.00616347  -0.785919
  419.406       0.83517        1.06956       -1.01984      -0.184709       0.536206
  419.518       0.821174        1.05688       -1.01724       0.114322        1.16598
  419.63       0.860858        1.09789       -1.01464       0.0772868  -0.978027
  419.743       0.838532        1.07689       -1.01204      -0.105343      -0.0868161
  419.855       0.837188        1.07687       -1.00944       0.0577792   0.51251
  419.967       0.851515        1.09252       -1.00684       0.00981806  -0.836515
  420.08       0.839394        1.08173       -1.00424      -0.130186      -0.28765
  420.192       0.822263        1.06592       -1.00164      -0.0548168   0.369395
  420.304       0.827082        1.07206      -0.999046      -0.0472196   0.133712
  420.417       0.811652        1.05796      -0.996445      -0.0247718   0.345821
  420.529       0.821516        1.06914      -0.993847       0.0304863  -0.962353
  420.641       0.8185        1.06745      -0.991248      -0.240916      -0.544309
  420.754       0.767382        1.01766      -0.988647      -0.09182    1.5386
  420.866       0.797868        1.04947      -0.986049       0.104808       0.551977
  420.978       0.790922        1.04385      -0.983451       0.0321542  -0.0769941
  421.091       0.805093        1.05934      -0.98085       0.0875075  -0.693254
  421.203       0.810585        1.06616      -0.978251      -0.12362      -0.917676
  421.315       0.777328        1.03422      -0.975653      -0.118603       0.105889
  421.428       0.783935        1.04216      -0.973052      -0.0998268  -0.0671843
  421.54       0.754897        1.01444      -0.970453      -0.133699       0.858106
  421.652       0.753906        1.01477      -0.967855       0.0929039   0.703328
  421.765       0.775772        1.03797      -0.965254       0.0243389   -1.21277
  421.877       0.759375        1.02289      -0.962656      -0.179605      -0.516826
  421.989       0.735433        1.00027      -0.960057      -0.0917401   0.551328
  422.102       0.738761        1.00493      -0.957456      -0.0557214   0.759066
  422.214       0.722912       0.990403      -0.954858       0.0788221    1.17064
  422.326       0.756472        1.02529      -0.952257       0.207322      -0.991648
  422.439       0.769498        1.03964      -0.949659      -0.144001       -1.40998
  422.551       0.724129       0.995592      -0.94706      -0.109358        1.45069
  422.663       0.744925        1.01771      -0.944459       0.181969       0.304041
  422.776       0.765018        1.03913      -0.941861      -0.0410402   -1.2918
  422.888       0.735707        1.01114      -0.939262      -0.108169      -0.461532
  423       0.740712        1.01747      -0.936662      -0.144746       0.153876
  423.113       0.703183       0.981267      -0.934063      -0.0735929   0.617163
  423.225       0.724183        1.00359      -0.931465      -0.00613173  -0.196757
  423.337       0.701805       0.982538      -0.928864      -0.117804       0.139328
  423.45       0.697713       0.97977      -0.926265       0.0251753   0.323225
  423.562       0.707459       0.99084      -0.923667      -0.0452079  -0.77668
  423.674       0.687554       0.97226      -0.921066      -0.149345       0.709604
  423.787       0.673901       0.959931      -0.918467       0.11424        1.02548
  423.899       0.713213        1.00057      -0.915869       0.0809775  -0.53673
  424.011       0.692097       0.980776      -0.913268      -0.00636323   0.555178
  424.124       0.711783        1.00179      -0.91067       0.205726       0.400636
  424.236       0.738324        1.02965      -0.908069       0.0836597   -1.9797
  424.348       0.730581        1.02323      -0.90547      -0.239112       -1.77919
  424.461       0.684619       0.978594      -0.902872      -0.315947       0.953184
  424.573       0.659588       0.954888      -0.900271      -0.0249314    2.50436
  424.685       0.679017       0.975641      -0.897673       0.246783       0.0925531
  424.798       0.715015        1.01296      -0.895074      -0.00414399   -1.46677
  424.91       0.678086       0.977358      -0.892473      -0.0827993   0.136702
  425.022       0.69641       0.997006      -0.889875       0.0265729  -0.11953
  425.135       0.684054       0.985974      -0.887276      -0.109646       0.100759
  425.247       0.671773       0.975018      -0.884676       0.0492136    1.14672
  425.359       0.695113       0.999681      -0.882077       0.148023       0.29767
  425.472       0.705019        1.01091      -0.879479       0.11607      -0.163694
  425.584       0.721194        1.02841      -0.876878       0.111241       -1.56747
  425.696       0.730015        1.03856      -0.874279      -0.236141       -1.19299
  425.809       0.668156       0.978021      -0.871681      -0.156705        1.20837
  425.921       0.694803        1.00599      -0.86908       0.0353792  -0.450516
  426.033       0.676106       0.98862      -0.866482      -0.257936      -0.536278
  426.146       0.636845       0.950684      -0.863881      -0.0851223    1.35741
  426.258       0.656979       0.972142      -0.861282       0.0470741   0.558268
  426.37       0.647418       0.963904      -0.858684       0.0402648  -0.0152407
  426.483       0.666027       0.983838      -0.856083       0.0436495  -0.599512
  426.595       0.657226       0.976361      -0.853484      -0.0944455  -0.661413
  426.707       0.644814       0.965273      -0.850886      -0.104904        1.11831
  426.82       0.633654       0.955438      -0.848285       0.156839        1.96802
  426.932       0.680056        1.00316      -0.845687       0.337309       -1.14742
  427.044       0.709413        1.03384      -0.843088      -0.100873       -2.01576
  427.157       0.65739       0.983146      -0.840487      -0.115633       0.833928
  427.269       0.683431        1.01051      -0.837889       0.0865111   0.476734
  427.381       0.67682        1.00522      -0.83529      -0.00855853   -1.49486
  427.494       0.681508        1.01124      -0.83269      -0.249383      -0.758164
  427.606       0.620784       0.951837      -0.830091      -0.178918        1.72855
  427.718       0.641323       0.973699      -0.827493       0.13885        1.40294
  427.831       0.651983       0.985685      -0.824892       0.136323      -0.376641
  427.943       0.671954        1.00698      -0.822293       0.0542188   -1.79228
  428.055       0.664166        1.00052      -0.819693      -0.266402      -0.877264
  428.168       0.612094       0.949768      -0.817094      -0.142902        2.10655
  428.28       0.63207       0.971068      -0.814496       0.206729       0.868183
  428.392       0.658546       0.998869      -0.811895       0.0521784  -0.743613
  428.505       0.643795       0.985442      -0.809296       0.0396387   0.0162288
  428.617       0.667448        1.01042      -0.806698       0.0558234  -0.511216
  428.729       0.656338        1.00063      -0.804097      -0.0752315   -1.04987
  428.842       0.650544       0.996163      -0.801498      -0.180082       0.33666
  428.954       0.615892       0.962835      -0.7989       0.0003823    1.64075
  429.067       0.65063       0.998898      -0.796299       0.188593       0.422509
  429.179       0.658269        1.00786      -0.793701       0.0953201   -1.40303
  429.291       0.672039        1.02295      -0.791102      -0.126527       -1.62174
  429.404       0.629838       0.982079      -0.788501      -0.269084        1.03603
  429.516       0.611576       0.96514      -0.785903       0.106268        1.58481
  429.628       0.653706        1.00859      -0.783304       0.0868648   -1.18528
  429.74       0.631094       0.987307      -0.780704      -0.160065      -0.845748
  429.853       0.617739       0.975276      -0.778105      -0.103175       0.888229
  429.965       0.607921       0.966782      -0.775507       0.0394314    1.03988
  430.077       0.6266       0.986785      -0.772906       0.130486      -0.147475
  430.19       0.637241       0.998751      -0.770307       0.00629362  -0.986879
  430.302       0.628014       0.990848      -0.767707      -0.0912659   0.273608
  430.414       0.616734       0.980892      -0.765108       0.0677733    1.50521
  430.527       0.643236        1.00872      -0.76251       0.246804      -0.562477
  430.639       0.672191        1.039      -0.759909      -0.0586152   -2.42072
  430.752       0.630065       0.998196      -0.75731      -0.297132       0.674312
  430.864       0.605455       0.974909      -0.754712       0.0928352    1.97808
  430.976       0.650925        1.0217      -0.752111       0.147343      -0.995065
  431.089       0.638563        1.01067      -0.749512      -0.130756       -1.12835
  431.201       0.621557       0.994984      -0.746914      -0.106085       0.3737
  431.313       0.614726       0.989478      -0.744313      -0.0467853   0.325828
  431.425       0.611044       0.987121      -0.741715      -0.0328709   0.0247839
  431.538       0.607343       0.984743      -0.739116      -0.0412189   0.235069
  431.65       0.601783       0.980507      -0.736515       0.0199491   0.733674
  431.762       0.611825       0.991874      -0.733917       0.123638      -0.352132
  431.875       0.629552        1.01092      -0.731318      -0.0591396  -0.857037
  431.987       0.598537       0.981234      -0.728718      -0.0689386   0.650358
  432.099       0.614061       0.998082      -0.726119       0.0869957   0.298969
  432.212       0.618085        1.00343      -0.723518      -0.0017603  -0.890073
  432.324       0.613666        1.00034      -0.72092      -0.113004      -0.114622
  432.437       0.592704       0.980698      -0.718321      -0.0275043    1.014
  432.549       0.607485       0.996804      -0.715721       0.114843       0.10118
  432.661       0.618509        1.00915      -0.713122      -0.00476904   -1.02453
  432.774       0.606414       0.998381      -0.710524      -0.115266       0.0639483
  432.886       0.592609       0.9859      -0.707923       0.00960013    1.28733
  432.998       0.608571        1.00319      -0.705324       0.173998       0.154678
  433.111       0.631689        1.02763      -0.702726       0.0443408   -1.22964
  433.223       0.618535        1.0158      -0.700125      -0.102302      -0.397682
  433.335       0.608702        1.00729      -0.697527      -0.0450183   0.639629
  433.447       0.608424        1.00834      -0.694928       0.0413584   0.289147
  433.56       0.617995        1.01923      -0.692327       0.0199531   -1.13356
  433.672       0.612907        1.01547      -0.689729      -0.213352      -0.25478
  433.784       0.570076       0.97396      -0.68713      -0.0372705    1.48719
  433.897       0.604532        1.00974      -0.684529       0.12082       0.295597
  434.009       0.597224        1.00376      -0.681931       0.0291502  -0.662366
  434.122       0.611082        1.01894      -0.67933      -0.0280136   0.105618
  434.234       0.59093        1.00011      -0.676732       0.0528826   0.812253
  434.346       0.62296        1.03347      -0.674133       0.154418      -0.342859
  434.459       0.625628        1.03746      -0.671532      -0.0241579   -1.97639
  434.571       0.617532        1.03069      -0.668934      -0.289675      -0.419016
  434.683       0.560566       0.975044      -0.666335      -0.118269        2.11977
  434.796       0.590957        1.00676      -0.663735       0.186636       0.346654
  434.908       0.602504        1.01963      -0.661136      -0.0403758   -1.30354
  435.02       0.581888        1.00034      -0.658538      -0.106139       0.260994
  435.133       0.578654       0.99843      -0.655937       0.0182695   0.938982
  435.245       0.585993        1.00709      -0.653338       0.10485      -0.203635
  435.357       0.602204        1.02463      -0.65074      -0.0274668  -0.49836
  435.47       0.579822        1.00357      -0.648139      -0.00713119   0.366926
  435.582       0.600601        1.02567      -0.645541       0.0549815  -0.415536
  435.694       0.59217        1.01857      -0.642942      -0.100461       0.0164371
  435.807       0.578028        1.00575      -0.640341       0.0586749   0.582359
  435.919       0.605355        1.0344      -0.637743       0.0303955   -1.07269
  436.031       0.584858        1.01523      -0.635142      -0.182359       -1.89283