File: C1/Imdz_example/N1s_Imidazole_ISEELS.txt
# XDI/1.0 Athena/0.9.24
# Element.edge:                  L3
# Element.symbol:                Sc
# Column.1:                      energy eV
# Column.2:                      norm
# Column.3:                      nbkg
# Column.4:                      flat
# Column.5:                      fbkg
# Column.6:                      nder
# Column.7:                      nsec
# Athena.e0:                     399.5223
# Athena.eshift:                 0
# Athena.rbkg:                   1.0
# Athena.importance:             1
# Athena.standard:               None
# Athena.bkg_kweight:            2
# Athena.edge_step:              5289.71
# Athena.fixed_step:             no
# Athena.pre_edge_range:         -6.740 -1.903
# Athena.pre_edge_line:          36409.2 - 70.5725 * E
# Athena.normalization_range:    24.560 35.552
# Athena.post_edge_polynomial:   61063.6 - 119.042 * E + 0 * E^2 + 0 * E^3
# Athena.spline_range_energy:    0.000 36.520
# Athena.clamps:                 0 24
# Athena.spline_range_k:         0.000 3.096
# Athena.kweight:                2
# Athena.window:                 hanning
# Athena.phase_correction:       no
# Athena.k_range:                1.096 3.000
# Athena.dk:                     1
# Athena.r_range:                1 3
# Athena.dr:                     0.0
# Athena.window:                 hanning
# Athena.plot_multiplier:        1
# Athena.y_offset:               0
# ///
#------------------------
#   e         norm        flat        fbkg        nder        nsec
  392.782       0.0197652   0.0197652   -1.64273      -0.220037       0.406321
  392.894      -0.00494502  -0.00494502   -1.64124      -0.174408        1.04901
  393.007      -0.0194242  -0.0194242   -1.63974       0.0156762    1.39628
  393.119      -0.00142258  -0.00142258   -1.63824       0.139336       0.13656
  393.231       0.0118706   0.0118706   -1.63674       0.0463476  -0.942608
  393.344       0.00899173   0.00899173   -1.63524      -0.0724681  -0.814929
  393.456      -0.00441293  -0.00441293   -1.63374      -0.136767       0.444833
  393.568      -0.0217261  -0.0217261   -1.63224       0.0274413   0.78994
  393.681       0.00175313   0.00175313   -1.63074       0.0407326  -0.357435
  393.793      -0.0125735  -0.0125735   -1.62925      -0.0528744   0.350481
  393.906      -0.0101225  -0.0101225   -1.62775       0.119451       0.336299
  394.018       0.014267   0.014267   -1.62625       0.022692  -0.581393
  394.13      -0.00502357  -0.00502357   -1.62475      -0.0111883   0.156546
  394.243       0.011753   0.011753   -1.62325       0.0578679   0.363805
  394.355       0.00797935   0.00797935   -1.62175       0.0705587  -0.871685
  394.467       0.0276005   0.0276005   -1.62025      -0.137912       -1.26949
  394.58      -0.0230096  -0.0230096   -1.61875      -0.214696        1.4768
  394.692      -0.0206417  -0.0206417   -1.61726       0.193925        1.66443
  394.804       0.0205461   0.0205461   -1.61576       0.159134       -1.78501
  394.917       0.0151158   0.0151158   -1.61426      -0.207166       -1.2322
  395.029      -0.0260042  -0.0260042   -1.61276      -0.11774        1.67583
  395.141      -0.0113287  -0.0113287   -1.61126       0.169225        1.3351
  395.254       0.0120207   0.0120207   -1.60976       0.182256       -1.1495
  395.366       0.0296242   0.0296242   -1.60826      -0.0890685   -1.40976
  395.478      -0.00798408  -0.00798408   -1.60676      -0.134376       0.714942
  395.591      -0.00057018  -0.00057018   -1.60527       0.0715791   0.541188
  395.703       0.00809973   0.00809973   -1.60377      -0.0127715  -0.613563
  395.815      -0.00343866  -0.00343866   -1.60227      -0.0662271  -0.0853579
  395.928      -0.0067815  -0.0067815   -1.60077      -0.0319514   0.515419
  396.04      -0.0106181  -0.0106181   -1.59927       0.0495876   0.494706
  396.152       0.00436083   0.00436083   -1.59777       0.0792091  -0.779029
  396.265       0.00718014   0.00718014   -1.59627      -0.12546      -0.450017
  396.377      -0.0238176  -0.0238176   -1.59478      -0.0218647    1.06112
  396.489       0.00226713   0.00226713   -1.59328       0.112973       0.0848235
  396.602       0.00156753   0.00156753   -1.59178      -0.0028049  -0.224098
  396.714       0.00163715   0.00163715   -1.59028       0.0626408   0.253104
  396.826       0.0156429   0.0156429   -1.58878       0.0540677  -0.863178
  396.939       0.0137862   0.0137862   -1.58728      -0.131315      -0.432715
  397.051      -0.0138505  -0.0138505   -1.58578      -0.04312   0.400889
  397.163       0.00409708   0.00409708   -1.58428      -0.0412355   0.421631
  397.276      -0.0231161  -0.0231161   -1.58279       0.0516204   0.164074
  397.388       0.015691   0.015691   -1.58129      -0.00438446  -0.158341
  397.5      -0.0241013  -0.0241013   -1.57979       0.0160413   0.959311
  397.613       0.0192955   0.0192955   -1.57829       0.211173      -0.330639
  397.725       0.0233281   0.0233281   -1.57679      -0.0582202   -1.28332
  397.837       0.00621343   0.00621343   -1.57529      -0.0771888   0.104681
  397.95       0.0059838   0.0059838   -1.57379      -0.0346983   0.90629
  398.062      -0.00158329  -0.00158329   -1.57229       0.126455       0.4891
  398.174       0.0343982   0.0343982   -1.57079       0.0752024  -0.339584
  398.287       0.0153072   0.0153072   -1.5693       0.0501841  -0.178584
  398.399       0.0456745   0.0456745   -1.5678       0.0350747  -0.232712
  398.511       0.0231885   0.0231885   -1.5663      -0.00210628   0.508003
  398.624       0.0452015   0.0452015   -1.5648       0.149172       0.784884
  398.736       0.0567075   0.0567075   -1.5633       0.174257        1.22165
  398.848       0.0843571   0.0843571   -1.5618       0.423677        2.18603
  398.961       0.151865       0.151865       -1.5603       0.665239        3.44706
  399.073       0.233836       0.233836       -1.5588        1.19823        5.22105
  399.185       0.421108       0.421108       -1.55731        1.83841        4.85623
  399.298       0.646743       0.646743       -1.55581        2.28894        5.52263
  399.41       0.935432       0.935432       -1.55431        3.07934        5.19025
  399.522        1.33867        1.33867       -1.55281        3.45519       -1.77683
  399.635        1.71147        1.7125       -1.55028        2.68027       -9.53824
  399.747        1.94093        1.94299       -1.54775        1.31195       -11.6612
  399.859        2.00626        2.00935       -1.54523       0.0599886   -11.5532
  399.972        1.9544        1.95852       -1.5427       -1.28289       -11.097
  400.084        1.718        1.72314       -1.54017       -2.4335       -6.24601
  400.196        1.40759        1.41377       -1.53764       -2.68637       0.201402
  400.309        1.11437        1.12158       -1.53511       -2.38825        2.84202
  400.421       0.870954       0.879189       -1.53259       -2.04777        5.30216
  400.533       0.65444       0.663704       -1.53006       -1.19738        7.30252
  400.646       0.601903       0.612197       -1.52753      -0.406893        4.84273
  400.758       0.563011       0.574334       -1.525      -0.109219        3.42431
  400.87       0.577372       0.589724       -1.52247       0.362207        3.49365
  400.983       0.644399       0.657781       -1.51995       0.675803       0.833104
  401.095       0.729225       0.743636       -1.51742       0.549405       -2.0953
  401.207       0.767796       0.783235       -1.51489       0.205198       -1.86876
  401.32       0.775333       0.791803       -1.51236       0.129495       0.657635
  401.432       0.796893       0.814392       -1.50983       0.352969        3.20918
  401.544       0.85461       0.873138       -1.50731       0.850278        4.5759
  401.657       0.987951        1.00751       -1.50478        1.38117        3.82963
  401.769        1.16496        1.18555       -1.50225        1.71079        3.22465
  401.881        1.3722        1.39381       -1.49972        2.10543        1.62036
  401.994        1.63805        1.6607       -1.49719        2.07489       -3.28672
  402.106        1.83842        1.8621       -1.49467        1.3669       -6.58531
  402.218        1.94519        1.9699       -1.49214       0.59517       -7.52417
  402.331        1.97216        1.99789       -1.48961      -0.323777       -6.85978
  402.443        1.87247        1.89923       -1.48708      -0.945537       -4.8918
  402.555        1.7597        1.78749       -1.48455       -1.42297       -4.51814
  402.668        1.55273        1.58155       -1.48203       -1.96076       -2.91951
  402.78        1.31931        1.34916       -1.4795       -2.07869       0.197037
  402.892        1.08565        1.11653       -1.47697       -1.91649        1.49867
  403.005       0.888673       0.920582       -1.47444       -1.74194        2.26859
  403.117       0.694412       0.72735       -1.47191       -1.40696        2.55992
  403.229       0.572528       0.606497       -1.46938       -1.16672        2.7678
  403.342       0.432249       0.467247       -1.46686      -0.785039        4.59816
  403.454       0.396209       0.432235       -1.46433      -0.133975        4.06796
  403.566       0.402145       0.439201       -1.4618       0.129033       0.979335
  403.679       0.425202       0.463287       -1.45927       0.0860814   0.111216
  403.791       0.421479       0.460593       -1.45675       0.154012       0.542582
  403.903       0.459809       0.499953       -1.45422       0.208        1.51948
  404.016       0.468217       0.50939       -1.45169       0.495439        1.54345
  404.128       0.571134       0.613337       -1.44916       0.554812       -1.10944
  404.24       0.592883       0.636115       -1.44663       0.246148      -0.441866
  404.353       0.626419       0.67068       -1.44411       0.455569        1.34701
  404.465       0.695249       0.74054       -1.44158       0.548822      -0.158399
  404.577       0.749739       0.796059       -1.43905       0.419976       -1.40437
  404.69       0.789576       0.836925       -1.43652       0.233399      -0.992052
  404.802       0.802184       0.850563       -1.43399       0.197062      -0.439032
  404.914       0.833856       0.883264       -1.43146       0.134749      -0.18014
  405.027       0.832448       0.882885       -1.42894       0.156603        1.42886
  405.139       0.869044       0.920511       -1.42641       0.455813        1.46276
  405.251       0.93487       0.987365       -1.42388       0.485284       -1.22296
  405.364       0.978039        1.03156       -1.42135       0.181136       -1.79071
  405.476       0.975571        1.03013       -1.41882       0.0829109   0.68733
  405.588       0.996669        1.05225       -1.4163       0.335579        1.02521
  405.701        1.05094        1.10755       -1.41377       0.313174      -0.204062
  405.813        1.06704        1.12468       -1.41124       0.289726      -0.103341
  405.925        1.11604        1.17471       -1.40871       0.289953      -0.198032
  406.038        1.13219        1.19189       -1.40618       0.245228       0.0661387
  406.15        1.17115        1.23188       -1.40366       0.304815      -0.140509
  406.262        1.20065        1.26241       -1.40113       0.21367      -0.363468
  406.375        1.21916        1.28195       -1.3986       0.223143       0.24845
  406.487        1.25079        1.31461       -1.39607       0.269497       0.721984
  406.599        1.27969        1.34453       -1.39354       0.385301       0.876728
  406.712        1.33737        1.40325       -1.39101       0.466498      -0.928282
  406.824        1.38451        1.45142       -1.38849       0.176716       -2.75016
  406.936        1.37706        1.445       -1.38596      -0.151189       -1.20675
  407.049        1.35054        1.4195       -1.38343      -0.0944411   0.538146
  407.161        1.35584        1.42583       -1.3809      -0.0302671   0.209246
  407.273        1.34374        1.41476       -1.37838      -0.0474445  -0.112989
  407.386        1.34518        1.41723       -1.37585      -0.0556558  -0.372949
  407.498        1.33123        1.40431       -1.37332      -0.131246      -0.852229
  407.61        1.3157        1.38981       -1.37079      -0.247066        1.1981
  407.723        1.27572        1.35086       -1.36826       0.137967        1.87157
  407.835        1.3467        1.42287       -1.36574       0.173475       -2.23592
  407.947        1.31468        1.39188       -1.36321      -0.364221       -1.00707
  408.06        1.26486        1.34309       -1.36068      -0.0528121    1.78439
  408.172        1.30281        1.38207       -1.35815       0.0367304  -0.508092
  408.284        1.27312        1.3534       -1.35562      -0.16698      -0.691071
  408.397        1.26529        1.34661       -1.35309      -0.118553       0.686435
  408.509        1.24649        1.32883       -1.35057      -0.012807    1.23949
  408.622        1.26241        1.34579       -1.34804       0.15996      -0.327518
  408.734        1.28243        1.36684       -1.34551      -0.0864003   -2.16172
  408.846        1.24301        1.32844       -1.34298      -0.325562       0.364586
  408.959        1.20928        1.29574       -1.34045      -0.00447784    1.40572
  409.071        1.242        1.3295       -1.33793      -0.00969592  -0.555217
  409.183        1.2071        1.29562       -1.3354      -0.129179       0.571003
  409.296        1.21298        1.30253       -1.33287       0.118608       0.649556
  409.408        1.23375        1.32433       -1.33034       0.0167756   -1.18752
  409.52        1.21674        1.30835       -1.32782      -0.148109       0.0637574
  409.632        1.20047        1.29311       -1.32529       0.0311019    1.54172
  409.745        1.22373        1.3174       -1.32276       0.198314       0.0394443
  409.857        1.24501        1.33971       -1.32023       0.0399611  -0.538262
  409.969        1.23271        1.32844       -1.3177       0.0773666   0.454325
  410.082        1.2624        1.35915       -1.31517       0.142048       0.0506969
  410.194        1.26463        1.36242       -1.31265       0.0887581   0.638668
  410.307        1.28234        1.38116       -1.31012       0.285557       0.504834
  410.419        1.32877        1.42861       -1.30759       0.202144      -0.811127
  410.531        1.32776        1.42864       -1.30506       0.103296      -0.246855
  410.644        1.35198        1.45388       -1.30253       0.146676      -0.157777
  410.756        1.36071        1.46364       -1.30001       0.0678595  -0.143818
  410.868        1.36722        1.47119       -1.29748       0.11436       0.258313
  410.981        1.3864        1.49139       -1.29495       0.125902      -0.482584
  411.093        1.3955        1.50152       -1.29242       0.00597145   -1.15532
  411.205        1.38774        1.49479       -1.28989      -0.133697       0.473954
  411.317        1.36546        1.47354       -1.28737       0.112469       0.456325
  411.43        1.413        1.52211       -1.28484      -0.0312068   -1.7553
  411.542        1.35845        1.46859       -1.28231      -0.281948        1.10873
  411.654        1.34965        1.46082       -1.27978       0.217926       0.988991
  411.767        1.40739        1.51959       -1.27725      -0.0598204   -1.89704
  411.879        1.33621        1.44944       -1.27473      -0.20834        1.24058
  411.991        1.36058        1.47484       -1.2722       0.218937       0.821708
  412.104        1.3854        1.50069       -1.26967      -0.0237022   -1.98061
  412.216        1.35525        1.47157       -1.26714      -0.226106       0.95554
  412.329        1.33462        1.45196       -1.26461       0.190912        1.16021
  412.441        1.39815        1.51653       -1.26208       0.0345934   -2.77214
  412.553        1.34239        1.4618       -1.25956      -0.431987      -0.137886
  412.666        1.30113        1.42156       -1.25703       0.00362415    2.24656
  412.778        1.34321        1.46467       -1.2545       0.072815  -0.233051
  412.89        1.31749        1.43998       -1.25197      -0.0487425   -1.00259
  413.002        1.33226        1.45578       -1.24945      -0.152366      -0.785341
  413.115        1.28325        1.4078       -1.24692      -0.225209       0.855871
  413.227        1.28166        1.40723       -1.24439       0.0399477    1.48813
  413.339        1.29223        1.41883       -1.24186       0.109026      -0.586848
  413.452        1.30615        1.43379       -1.23933      -0.0919171   -1.57605
  413.564        1.27157        1.40024       -1.23681      -0.245112       0.0520305
  413.676        1.2511        1.3808       -1.23428      -0.080231    1.56365
  413.789        1.25354        1.38427       -1.23175       0.106241       0.932243
  413.901        1.27498        1.40673       -1.22922       0.129244      -0.379984
  414.014        1.28257        1.41535       -1.22669       0.0208966   -1.34976
  414.126        1.27967        1.41348       -1.22416      -0.174048      -0.640226
  414.238        1.24346        1.37831       -1.22164      -0.122962        1.44052
  414.351        1.25204        1.38791       -1.21911       0.149637       0.68594
  414.463        1.27709        1.41399       -1.21658       0.0311687   -1.04286
  414.575        1.25904        1.39697       -1.21405      -0.0845891  -0.751464
  414.688        1.25808        1.39704       -1.21152      -0.137685      -0.00948387
  414.8        1.2281        1.36809       -1.209      -0.0867201   0.310984
  414.912        1.2386        1.37962       -1.20647      -0.0678383  -0.0603834
  415.025        1.21286        1.35491       -1.20394      -0.100288        1.26453
  415.137        1.21607        1.35914       -1.20141       0.216301       0.590803
  415.249        1.26144        1.40555       -1.19889       0.032406   -2.46425
  415.362        1.22335        1.36848       -1.19636      -0.337417      -0.730562
  415.474        1.18562        1.33179       -1.19383      -0.131751        1.48266
  415.586        1.19376        1.34095       -1.1913      -0.00441054   0.505721
  415.699        1.18463        1.33286       -1.18877      -0.0181158  -0.862977
  415.811        1.18969        1.33894       -1.18624      -0.198321      -0.556827
  415.923        1.14009        1.29037       -1.18372      -0.143179        1.61272
  416.036        1.15751        1.30883       -1.18119       0.164057       0.885585
  416.148        1.17695        1.32929       -1.17866       0.0558117   -1.28498
  416.26        1.17006        1.32343       -1.17613      -0.124678      -0.73782
  416.373        1.14894        1.30334       -1.1736      -0.109976      -0.552669
  416.485        1.14536        1.30078       -1.17108      -0.248808      -0.0110633
  416.597        1.09303        1.24949       -1.16855      -0.112462        1.26762
  416.71        1.12008        1.27757       -1.16602       0.0360254  -0.223967
  416.822        1.10112        1.25964       -1.16349      -0.162765       0.0408046
  416.934        1.08351        1.24306       -1.16096       0.0451942  -0.151271
  417.047        1.11128        1.27185       -1.15844      -0.196756       -1.99488
  417.159        1.03932        1.20092       -1.15591      -0.402855       0.503491
  417.271        1.02076        1.18339       -1.15338      -0.0836216    2.20187
  417.384        1.02053        1.18419       -1.15085       0.091906   0.719849
  417.496        1.0414        1.20609       -1.14832       0.0780564  -0.636824
  417.608        1.03807        1.20379       -1.14579      -0.0511884   -1.27333
  417.721        1.0299        1.19665       -1.14327      -0.20806       0.184448
  417.833       0.991339        1.15912       -1.14074      -0.00976138    1.59694
  417.945        1.0277        1.19651       -1.13821       0.150772       -1.34523
  418.058        1.02522        1.19506       -1.13568      -0.312034       -1.32991
  418.17       0.957589        1.12846       -1.13315      -0.148059        2.40845
  418.282       0.991949        1.16385       -1.13063       0.229146        1.03675
  418.395        1.00905        1.18198       -1.1281       0.0847955   -1.22
  418.507        1.011        1.18496       -1.12557      -0.0449878   -1.46252
  418.619       0.998946        1.17393       -1.12304      -0.243832      -0.899689
  418.732       0.956238        1.13225       -1.12052      -0.247058       0.391145
  418.844       0.943432        1.12048       -1.11799      -0.155942        1.13153
  418.956       0.921198        1.09927       -1.11546       0.00719706   0.586008
  419.069       0.945049        1.12415       -1.11293      -0.0243248  -0.0643137
  419.181       0.915732        1.09586       -1.1104      -0.00725423   0.0854816
  419.293       0.943419        1.12458       -1.10787      -0.00511705  -0.828292
  419.406       0.914583        1.09677       -1.10535      -0.193289       0.565115
  419.518       0.899987        1.08321       -1.10282       0.121864        1.22884
  419.63       0.941965        1.12621       -1.10029       0.0828325   -1.03076
  419.743       0.918591        1.10387       -1.09776      -0.109644      -0.0914968
  419.855       0.917328        1.10364       -1.09523       0.0622731   0.540142
  419.967       0.932584        1.11992       -1.09271       0.0117261  -0.881616
  420.08       0.919963        1.10833       -1.09018      -0.135826      -0.303158
  420.192       0.902064        1.09146       -1.08765      -0.0563936   0.389311
  420.304       0.907297        1.09772       -1.08512      -0.0483868   0.140921
  420.417       0.891191        1.08265       -1.08259      -0.0247286   0.364466
  420.529       0.901741        1.09422       -1.08007       0.0335087   -1.01424
  420.641       0.898717        1.09223       -1.07754      -0.252527      -0.573656
  420.754       0.844998        1.03954       -1.07501      -0.0953918    1.62156
  420.866       0.877283        1.07285       -1.07248       0.111838       0.581738
  420.978       0.870117        1.06672       -1.06995       0.0352665  -0.0811453
  421.091       0.885207        1.08284       -1.06743       0.0936042  -0.730631
  421.203       0.89115        1.08981       -1.0649      -0.128906      -0.967153
  421.315       0.856255        1.05594       -1.06237      -0.123618       0.111598
  421.428       0.863373        1.06409       -1.05984      -0.10383      -0.0708066
  421.54       0.832924        1.03467       -1.05731      -0.139529       0.904371
  421.652       0.832035        1.03481       -1.05479       0.0992916   0.741248
  421.765       0.855235        1.05904       -1.05226       0.0270299   -1.27815
  421.877       0.838108        1.04294       -1.04973      -0.18791      -0.544691
  421.989       0.81303        1.0189       -1.0472      -0.0953076   0.581054
  422.102       0.816693        1.02359       -1.04467      -0.0573469   0.799992
  422.214       0.800144        1.00807       -1.04215       0.0844505    1.23376
  422.326       0.835669        1.04462       -1.03962       0.219879       -1.04511
  422.439       0.849551        1.05953       -1.03709      -0.150387       -1.486
  422.551       0.801892        1.0129       -1.03456      -0.113876        1.52891
  422.663       0.823963        1.036       -1.03203       0.193159       0.320434
  422.776       0.845294        1.05837       -1.02951      -0.0418742   -1.36145
  422.888       0.814558        1.02866       -1.02698      -0.112622      -0.486416
  423       0.819988        1.03512       -1.02445      -0.151172       0.162172
  423.113       0.78059       0.996749       -1.02192      -0.076182   0.650437
  423.225       0.802878        1.02007       -1.01939      -0.0050836  -0.207365
  423.337       0.779448       0.997665       -1.01686      -0.122777       0.14684
  423.45       0.77529       0.994536       -1.01434       0.0279114   0.340652
  423.562       0.785717        1.00599       -1.01181      -0.0462666  -0.818555
  423.674       0.764894       0.986199       -1.00928      -0.156018       0.747862
  423.787       0.75066       0.972994       -1.00675       0.121778        1.08077
  423.899       0.792245        1.01561       -1.00423       0.0867221  -0.565668
  424.011       0.770146       0.994539       -1.0017      -0.00532758   0.585111
  424.124       0.791048        1.01647      -0.999169       0.218196       0.422237
  424.236       0.819175        1.04563      -0.99664       0.089549   -2.08643
  424.348       0.81117        1.03865      -0.994112      -0.250625       -1.87512
  424.461       0.762884       0.991395      -0.991585      -0.331603        1.00457
  424.573       0.736658       0.966199      -0.989056      -0.0248969    2.63939
  424.685       0.75729       0.987859      -0.986528       0.261467       0.0975431
  424.798       0.795384        1.02698      -0.984001      -0.00298869   -1.54585
  424.91       0.756618       0.989247      -0.981472      -0.0858847   0.144072
  425.022       0.776086        1.00974      -0.978944       0.0293843  -0.125974
  425.135       0.763218       0.997904      -0.976417      -0.114179       0.106192
  425.247       0.75043       0.986146      -0.973888       0.0532457    1.20855
  425.359       0.775183        1.01193      -0.97136       0.157382       0.313719
  425.472       0.785778        1.02355      -0.968833       0.123707      -0.17252
  425.584       0.802979        1.04178      -0.966304       0.118617       -1.65198
  425.696       0.812431        1.05226      -0.963776      -0.247494       -1.25731
  425.809       0.747392       0.988254      -0.961249      -0.163775        1.27352
  425.921       0.775631        1.01752      -0.95872       0.0386655  -0.474806
  426.033       0.75608       0.999001      -0.956192      -0.270464      -0.565191
  426.146       0.714857       0.958808      -0.953663      -0.088333    1.43059
  426.258       0.736232       0.981212      -0.951136       0.0509908   0.588368
  426.37       0.72631       0.972319      -0.948608       0.0438144  -0.0160624
  426.483       0.746077       0.993116      -0.946079       0.0473816  -0.631835
  426.595       0.736957       0.985024      -0.943552      -0.0981589  -0.697074
  426.707       0.724031       0.973127      -0.941024      -0.109181        1.1786
  426.82       0.712424       0.96255      -0.938495       0.166674        2.07412
  426.932       0.761482        1.01264      -0.935968       0.356874       -1.20929
  427.044       0.792578        1.04476      -0.93344      -0.104932       -2.12444
  427.157       0.737904       0.991118      -0.930911      -0.120489       0.87889
  427.269       0.765504        1.01975      -0.928384       0.0925541   0.502437
  427.381       0.758692        1.01396      -0.925856      -0.00764124   -1.57545
  427.494       0.763787        1.02009      -0.923327      -0.26145      -0.799041
  427.606       0.699944       0.957275      -0.9208      -0.187186        1.82175
  427.718       0.721745       0.980105      -0.918272       0.147715        1.47858
  427.831       0.733135       0.992526      -0.915743       0.145051      -0.396948
  427.943       0.754338        1.01476      -0.913216       0.0585208   -1.88891
  428.055       0.746285        1.00773      -0.910686      -0.279387      -0.924562
  428.168       0.69156       0.954038      -0.908159      -0.149228        2.22012
  428.28       0.712768       0.976276      -0.905632       0.219253       0.914992
  428.392       0.740826        1.00536      -0.903102       0.0563704  -0.783705
  428.505       0.725435       0.991001      -0.900575       0.0431546   0.0171038
  428.617       0.750518        1.01711      -0.898048       0.0602119  -0.538779
  428.729       0.738964        1.00659      -0.895518      -0.077909   -1.10647
  428.842       0.733012        1.00167      -0.892991      -0.188413       0.354811
  428.954       0.696647       0.96633      -0.890464       0.00178164    1.72921
  429.067       0.733413        1.00413      -0.887934       0.20014       0.445289
  429.179       0.741618        1.01336      -0.885407       0.101838       -1.47867
  429.291       0.756285        1.02906      -0.88288      -0.13197       -1.70917
  429.404       0.711965       0.985766      -0.88035      -0.282213        1.09188
  429.516       0.692872       0.967702      -0.877823       0.113376        1.67026
  429.628       0.737429        1.01329      -0.875296       0.0929269   -1.24919
  429.74       0.713753       0.990642      -0.872766      -0.167316      -0.891347
  429.853       0.699833       0.977751      -0.870239      -0.107359       0.936118
  429.965       0.68964       0.968587      -0.867712       0.042936    1.09594
  430.077       0.709481       0.989457      -0.865182       0.1389      -0.155427
  430.19       0.720851        1.00186      -0.862655       0.00801167   -1.04009
  430.302       0.711281       0.993317      -0.860125      -0.0948079   0.28836
  430.414       0.699548       0.982612      -0.857598       0.0728061    1.58636
  430.527       0.727633        1.01173      -0.855071       0.26149      -0.592803
  430.639       0.758304        1.04343      -0.852541      -0.0603967   -2.55124
  430.752       0.714062        1.00021      -0.850014      -0.311774       0.710668
  430.864       0.68828       0.975462      -0.847487       0.0992192    2.08473
  430.976       0.736356        1.02457      -0.844957       0.156666       -1.04871
  431.089       0.723483        1.01272      -0.84243      -0.136427       -1.18919
  431.201       0.705715       0.995985      -0.839903      -0.110425       0.393849
  431.313       0.69867       0.98997      -0.837373      -0.0479291   0.343396
  431.425       0.694945       0.987274      -0.834846      -0.0332644   0.0261201
  431.538       0.691199       0.984556      -0.832319      -0.0420625   0.247743
  431.65       0.685494       0.979881      -0.829789       0.0224034   0.77323
  431.762       0.696233       0.991649      -0.827262       0.131682      -0.371117
  431.875       0.71507        1.01152      -0.824735      -0.0609495  -0.903245
  431.987       0.682538       0.980013      -0.822205      -0.0712768   0.685422
  432.099       0.699054       0.997558      -0.819678       0.0930649   0.315088
  432.212       0.703449        1.00298      -0.817148      -0.000476487  -0.938061
  432.324       0.698947       0.99951      -0.814621      -0.117718      -0.120801
  432.437       0.67701       0.978602      -0.812094      -0.0276085    1.06868
  432.549       0.692743       0.995365      -0.809564       0.122414       0.106636
  432.661       0.704516        1.00817      -0.807037      -0.00364744   -1.07977
  432.774       0.691924       0.996604      -0.80451      -0.120102       0.0673961
  432.886       0.677529       0.98324      -0.80198       0.0114965    1.35674
  432.998       0.694507        1.00125      -0.799453       0.184758       0.163018
  433.111       0.719026        1.02679      -0.796926       0.0481102   -1.29594
  433.223       0.705318        1.01412      -0.794396      -0.106439      -0.419123
  433.335       0.695109        1.00494      -0.791869      -0.0460667   0.674115
  433.447       0.694971        1.00583      -0.789342       0.044967   0.304737
  433.56       0.705213        1.0171      -0.786812       0.0224076   -1.19467
  433.672       0.700006        1.01292      -0.784285      -0.223476      -0.268517
  433.784       0.655021       0.968965      -0.781758      -0.0379013    1.56737
  433.897       0.69149        1.00646      -0.779228       0.128713       0.311535
  434.009       0.683942       0.999945      -0.776701       0.0321006  -0.698078
  434.122       0.698703        1.01574      -0.774172      -0.0281452   0.111313
  434.234       0.677618       0.99568      -0.771644       0.0571125   0.856046
  434.346       0.71153        1.03062      -0.769117       0.164123      -0.361345
  434.459       0.714496        1.03462      -0.766588      -0.0240816   -2.08294
  434.571       0.706119        1.02727      -0.76406      -0.303915      -0.441607
  434.683       0.646237       0.968416      -0.761533      -0.123267        2.23406
  434.796       0.678421        1.00163      -0.759004       0.198078       0.365344
  434.908       0.690745        1.01498      -0.756476      -0.0411739   -1.37382
  435.02       0.669173       0.99444      -0.753949      -0.110483       0.275065
  435.133       0.66592       0.992216      -0.75142       0.0206333   0.989607
  435.245       0.67381        1.00114      -0.748892       0.111882      -0.214614
  435.357       0.691049        1.0194      -0.746365      -0.0275689  -0.52523
  435.47       0.667615       0.996999      -0.743836      -0.00613694   0.386709
  435.582       0.68967        1.02008      -0.741308       0.0593245  -0.43794
  435.694       0.680939        1.01238      -0.738781      -0.104498       0.0173233
  435.807       0.666189       0.998661      -0.736252       0.0632171   0.613758
  435.919       0.695144        1.02865      -0.733724       0.033413   -1.13052
  436.031       0.673697        1.00823      -0.731195      -0.190812       -1.99488